onset	duration	TR	Trial	StimOn	StimOff	cond	image	1back	Response	RT	Accuracy
12.0340	0.7669	6.016997	1	12.033995	12.800884	Scene	090.JPG	1	0	0.000000	correct rejection
13.0013	0.8004	6.500672	2	13.001344	13.801741	Scene	090.JPG	2	1	621.174097	hit              
14.0021	0.8004	7.001059	3	14.002118	14.802490	Scene	130.jpg	1	0	0.000000	correct rejection
15.0030	0.8004	7.501477	4	15.002953	15.803347	Scene	114.jpg	1	0	0.000000	correct rejection
16.0038	0.8004	8.001888	5	16.003775	16.804166	Scene	069.jpg	1	0	0.000000	correct rejection
17.0046	0.8004	8.502324	6	17.004647	17.805000	Scene	083.jpg	1	0	0.000000	correct rejection
18.0071	0.7988	9.003535	7	18.007070	18.805846	Scene	083.jpg	2	1	583.389997	hit              
19.0063	0.8004	9.503168	8	19.006335	19.806699	Scene	020.jpg	1	0	0.000000	correct rejection
20.0074	0.8001	10.003723	9	20.007445	20.807532	Scene	015.jpg	1	0	0.000000	correct rejection
21.0080	0.8003	10.504021	10	21.008042	21.808368	Scene	132.jpg	1	0	0.000000	correct rejection
22.0089	0.8003	11.004434	11	22.008869	22.809212	Scene	013.jpg	1	0	0.000000	correct rejection
23.0097	0.7837	11.504847	12	23.009694	23.793393	Scene	011.jpg	1	0	0.000000	correct rejection
24.0106	0.7837	12.005276	13	24.010552	24.794275	Scene	014.jpg	1	0	0.000000	correct rejection
25.0114	0.7837	12.505690	14	25.011381	25.795067	Scene	021.jpg	1	0	0.000000	correct rejection
26.0123	0.7836	13.006148	15	26.012297	26.795875	Scene	040.jpg	1	0	0.000000	correct rejection
26.9965	0.8002	13.498258	16	26.996516	27.796749	Scene	076.jpg	1	0	0.000000	correct rejection
27.9974	6.0000	13.998682	fix	27.997365	0.000000	fix	fix	fix	fix	fix	n/a
34.0186	0.7840	17.009310	17	34.018621	34.802621	WkObject	rubik-original.jpg	1	0	0.000000	correct rejection
35.0031	0.8004	17.501545	18	35.003090	35.803449	WkObject	ac.jpg	1	0	0.000000	correct rejection
36.0039	0.8004	18.001966	19	36.003931	36.804326	WkObject	bench.jpg	1	0	0.000000	correct rejection
37.0051	0.8001	18.502526	20	37.005052	37.805137	WkObject	plant01.jpg	1	0	0.000000	correct rejection
38.0056	0.8004	19.002790	21	38.005580	38.805979	WkObject	crate.jpg	1	0	0.000000	correct rejection
39.0065	0.8004	19.503230	22	39.006461	39.806825	WkObject	crate.jpg	2	1	623.759031	hit              
40.0073	0.8004	20.003665	23	40.007330	40.807683	WkObject	umbrella2.jpg	1	0	0.000000	correct rejection
41.0081	0.8004	20.504044	24	41.008088	41.808527	WkObject	umbrella2.jpg	2	1	526.098967	hit              
42.0090	0.8003	21.004499	25	42.008998	42.809347	WkObject	basket.jpg	1	0	0.000000	correct rejection
43.0098	0.7837	21.504887	26	43.009775	43.793481	WkObject	laptop.jpg	1	0	0.000000	correct rejection
44.0106	0.7837	22.005315	27	44.010630	44.794332	WkObject	Newspaper.jpg	1	0	0.000000	correct rejection
45.0115	0.7840	22.505759	28	45.011519	45.795487	WkObject	Helicopter.jpg	1	0	0.000000	correct rejection
46.0124	0.7837	23.006181	29	46.012363	46.796030	WkObject	9volt.jpg	1	0	0.000000	correct rejection
46.9965	0.8004	23.498257	30	46.996513	47.796872	WkObject	hotairballoon.jpg	1	0	0.000000	correct rejection
47.9973	0.8004	23.998650	31	47.997300	48.797714	WkObject	humidifier.jpg	1	0	0.000000	correct rejection
48.9981	0.8004	24.499069	32	48.998139	49.798530	WkObject	spraybottle01.jpg	1	0	0.000000	correct rejection
49.9991	6.0000	24.999542	fix	49.999085	0.000000	fix	fix	fix	fix	fix	n/a
56.0206	0.7839	28.010277	33	56.020553	56.804432	Scrambled	scambled_sun_acfzwujvudexaklvrot.jpg	1	0	0.000000	correct rejection
57.0049	0.8004	28.502434	34	57.004867	57.805243	Scrambled	scambled_sun_bhacgmcdgrgtyplg.jpg	1	0	0.000000	correct rejection
58.0058	0.8003	29.002880	35	58.005759	58.806079	Scrambled	scambled_house (34).jpg	1	0	0.000000	correct rejection
59.0065	0.8004	29.503275	36	59.006549	59.806922	Scrambled	scambled_may 20th 2011 002.JPG	1	0	0.000000	correct rejection
60.0074	0.8004	30.003707	37	60.007414	60.807770	Scrambled	scambled_may 20th 2011 002.JPG	2	1	582.554817	hit              
61.0082	0.8004	30.504122	38	61.008244	61.808638	Scrambled	scambled_country-house-bedroom-design-ideas-585x587.jpg	1	0	0.000000	correct rejection
62.0091	0.8003	31.004557	39	62.009115	62.809449	Scrambled	scambled_Kitchen NW.JPG	1	0	0.000000	correct rejection
63.0100	0.7836	31.504982	40	63.009963	63.793591	Scrambled	scambled_Furnished-Office.jpg	1	0	0.000000	correct rejection
64.0108	0.7837	32.005388	41	64.010776	64.794430	Scrambled	scambled_gym.jpg	1	0	0.000000	correct rejection
65.0116	0.7836	32.505816	42	65.011633	65.795264	Scrambled	scambled_livingRoomrot.jpg	1	0	0.000000	correct rejection
66.0125	0.7837	33.006245	43	66.012489	66.796143	Scrambled	scambled_home-office-design-ideas.jpg	1	0	0.000000	correct rejection
66.9966	0.8003	33.498319	44	66.996637	67.796947	Scrambled	scambled_gazebo.jpg	1	0	0.000000	correct rejection
67.9975	0.8003	33.998737	45	67.997474	68.797790	Scrambled	scambled_house (19).jpg	1	0	0.000000	correct rejection
68.9987	0.7999	34.499344	46	68.998689	69.798621	Scrambled	scambled_house (19).jpg	2	1	535.163164	hit              
69.9992	0.8003	34.999587	47	69.999174	70.799481	Scrambled	scambled_sun_afjnbldlkryenvxn.jpg	1	0	0.000000	correct rejection
70.9999	0.8004	35.499968	48	70.999936	71.800343	Scrambled	scambled_clothingStore.jpg	1	0	0.000000	correct rejection
72.0008	6.0000	36.000412	fix	72.000824	0.000000	fix	fix	fix	fix	fix	n/a
78.0222	0.7840	39.011101	49	78.022201	78.806186	Scene	027.jpg	1	0	0.000000	correct rejection
79.0067	0.8003	39.503358	50	79.006715	79.807025	Scene	003.jpg	1	0	0.000000	correct rejection
80.0076	0.8004	40.003776	51	80.007552	80.807949	Scene	075.jpg	1	0	0.000000	correct rejection
81.0083	0.8004	40.504172	52	81.008344	81.808761	Scene	070.jpg	1	0	0.000000	correct rejection
82.0093	0.8003	41.004627	53	82.009254	82.809550	Scene	032.jpg	1	0	0.000000	correct rejection
83.0100	0.7837	41.505005	54	83.010010	83.793698	Scene	004.jpg	1	0	0.000000	correct rejection
84.0109	0.7836	42.005456	55	84.010912	84.794542	Scene	025.jpg	1	0	0.000000	correct rejection
85.0117	0.7837	42.505862	56	85.011724	85.795388	Scene	116.jpg	1	0	0.000000	correct rejection
86.0126	0.7836	43.006320	57	86.012641	86.796220	Scene	018.jpg	1	0	0.000000	correct rejection
86.9969	0.8001	43.498469	58	86.996937	87.797066	Scene	094.jpg	1	0	0.000000	correct rejection
87.9975	0.8004	43.998760	59	87.997521	88.797905	Scene	046.jpg	1	0	0.000000	correct rejection
88.9983	0.8004	44.499174	60	88.998349	89.798735	Scene	046.jpg	2	1	583.266020	hit              
89.9992	0.8004	44.999611	61	89.999222	90.799587	Scene	102.jpg	1	0	0.000000	correct rejection
91.0001	0.8004	45.500033	62	91.000066	91.800423	Scene	102.jpg	2	1	741.556883	hit              
92.0009	0.8004	46.000443	63	92.000887	92.801332	Scene	045.jpg	1	0	0.000000	correct rejection
93.0017	0.8004	46.500852	64	93.001704	93.802095	Scene	074.jpg	1	0	0.000000	correct rejection
94.0026	6.0000	47.001297	fix	94.002593	0.000000	fix	fix	fix	fix	fix	n/a
100.0076	0.8004	50.003806	65	100.007612	100.807977	WkObject	lamp.jpg	1	0	0.000000	correct rejection
101.0085	0.8003	50.504246	66	101.008493	101.808824	WkObject	armyknife.jpg	1	0	0.000000	correct rejection
102.0093	0.8003	51.004660	67	102.009321	102.809654	WkObject	armyknife.jpg	2	1	516.126156	hit              
103.0102	0.7837	51.505089	68	103.010177	103.793855	WkObject	backpack.jpg	1	0	0.000000	correct rejection
104.0111	0.7836	52.005525	69	104.011051	104.794648	WkObject	fan.jpg	1	0	0.000000	correct rejection
105.0118	0.7840	52.505906	70	105.011813	105.795795	WkObject	tree.jpg	1	0	0.000000	correct rejection
106.0127	0.7836	53.006345	71	106.012690	106.796331	WkObject	tree.jpg	2	1	480.712891	hit              
106.9975	0.7997	53.498737	72	106.997474	107.797208	WkObject	cooler.jpg	1	0	0.000000	correct rejection
107.9976	0.8004	53.998825	73	107.997650	108.798022	WkObject	safe.jpg	1	0	0.000000	correct rejection
108.9986	0.8003	54.499292	74	108.998585	109.798857	WkObject	box.jpg	1	0	0.000000	correct rejection
109.9994	0.8003	54.999681	75	109.999361	110.799697	WkObject	flashlight.jpg	1	0	0.000000	correct rejection
111.0002	0.8003	55.500098	76	111.000197	111.800535	WkObject	chess.JPG	1	0	0.000000	correct rejection
112.0010	0.8003	56.000519	77	112.001038	112.801375	WkObject	window.jpg	1	0	0.000000	correct rejection
113.0019	0.8003	56.500931	78	113.001861	113.802211	WkObject	step_stool.jpg	1	0	0.000000	correct rejection
114.0027	0.8003	57.001356	79	114.002711	114.803060	WkObject	fireExt.jpg	1	0	0.000000	correct rejection
115.0035	0.8004	57.501755	80	115.003509	115.803889	WkObject	radiator.jpg	1	0	0.000000	correct rejection
116.0045	6.0000	58.002239	fix	116.004477	0.000000	fix	fix	fix	fix	fix	n/a
122.0258	0.7840	61.012894	81	122.025787	122.809770	Scrambled	scambled_hairSalon.jpg	1	0	0.000000	correct rejection
123.0103	0.7837	61.505136	82	123.010271	123.793935	Scrambled	scambled_varadero-beach-13915-2560x1600.jpg	1	0	0.000000	correct rejection
124.0111	0.7836	62.005571	83	124.011141	124.794766	Scrambled	scambled_varadero-beach-13915-2560x1600.jpg	2	1	562.141895	hit              
125.0120	0.7837	62.505988	84	125.011976	125.795662	Scrambled	scambled_sun_djdeitrckcbvpdam.jpg	1	0	0.000000	correct rejection
126.0128	0.7837	63.006384	85	126.012767	126.796487	Scrambled	scambled_sun_ahiphsekjihkafsl.jpg	1	0	0.000000	correct rejection
126.9969	0.8004	63.498463	86	126.996926	127.797288	Scrambled	scambled_sun_ahiphsekjihkafsl.jpg	2	1	584.267855	hit              
127.9983	0.7998	63.999163	87	127.998326	128.798131	Scrambled	scambled_sun_aowymmyymtohyobt.jpg	1	0	0.000000	correct rejection
128.9986	0.8003	64.499312	88	128.998623	129.798965	Scrambled	scambled_sun_abfnxcxrrkcbdheorot.jpg	1	0	0.000000	correct rejection
129.9994	0.8004	64.999709	89	129.999419	130.799807	Scrambled	scambled_sun_abkmizyubcfcudbrrot.jpg	1	0	0.000000	correct rejection
131.0003	0.8003	65.500153	90	131.000306	131.800642	Scrambled	scambled_library.jpg	1	0	0.000000	correct rejection
132.0011	0.8003	66.000572	91	132.001144	132.801487	Scrambled	scambled_sun_abkmizyubcfcudbr.jpg	1	0	0.000000	correct rejection
133.0019	0.8004	66.500973	92	133.001946	133.802329	Scrambled	scambled_sun_acggnoeidnfjlcis.jpg	1	0	0.000000	correct rejection
134.0028	0.8004	67.001392	93	134.002783	134.803168	Scrambled	scambled_sun_aiyqlrbcjqqjumtf.jpg	1	0	0.000000	correct rejection
135.0036	0.8004	67.501817	94	135.003635	135.804004	Scrambled	scambled_Model_bedroom1rot.jpg	1	0	0.000000	correct rejection
136.0045	0.8004	68.002246	95	136.004491	136.804845	Scrambled	scambled_sun_aghsutguqpsbxebg.jpg	1	0	0.000000	correct rejection
137.0054	0.8003	68.502676	96	137.005353	137.805690	Scrambled	scambled_sun_bgmylyaviikfuowd.jpg	1	0	0.000000	correct rejection
138.0062	6.0000	69.003091	fix	138.006181	0.000000	fix	fix	fix	fix	fix	n/a
144.0276	0.7673	72.013822	97	144.027644	144.794938	Scene	108.jpg	1	0	0.000000	correct rejection
145.0121	0.7837	72.506028	98	145.012056	145.795731	Scene	058.jpg	1	0	0.000000	correct rejection
145.9965	0.8001	72.998253	99	145.996505	146.796584	Scene	017.jpg	1	0	0.000000	correct rejection
146.9970	0.8004	73.498517	100	146.997034	147.797412	Scene	017.jpg	2	1	615.896940	hit              
147.9979	0.8004	73.998944	101	147.997888	148.798291	Scene	066.jpg	1	0	0.000000	correct rejection
148.9988	0.8003	74.499384	102	148.998768	149.799097	Scene	134.jpg	1	0	0.000000	correct rejection
149.9995	0.8004	74.999773	103	149.999545	150.799941	Scene	009.jpg	1	0	0.000000	correct rejection
151.0004	0.8004	75.500202	104	151.000404	151.800781	Scene	073.jpg	1	0	0.000000	correct rejection
152.0012	0.8004	76.000623	105	152.001247	152.801607	Scene	065.jpg	1	0	0.000000	correct rejection
153.0021	0.8003	76.501065	106	153.002131	153.802452	Scene	012.jpg	1	0	0.000000	correct rejection
154.0029	0.8004	77.001449	107	154.002899	154.803306	Scene	033.jpg	1	0	0.000000	correct rejection
155.0038	0.8004	77.501899	108	155.003798	155.804170	Scene	007.jpg	1	0	0.000000	correct rejection
156.0047	0.8003	78.002334	109	156.004668	156.804959	Scene	085.jpg	1	0	0.000000	correct rejection
157.0055	0.8003	78.502746	110	157.005492	157.805821	Scene	038.jpg	1	0	0.000000	correct rejection
158.0063	0.8003	79.003162	111	158.006324	158.806658	Scene	038.jpg	2	1	502.465963	hit              
159.0071	0.8004	79.503573	112	159.007146	159.807525	Scene	082.jpg	1	0	0.000000	correct rejection
160.0080	6.0000	80.003990	fix	160.007980	0.000000	fix	fix	fix	fix	fix	n/a
166.0130	0.7837	83.006503	113	166.013007	166.796693	WkObject	cart.jpg	1	0	0.000000	correct rejection
166.9972	0.8004	83.498583	114	166.997166	167.797556	WkObject	pizza_box.jpg	1	0	0.000000	correct rejection
167.9980	0.8004	83.999008	115	167.998016	168.798372	WkObject	pizza_box.jpg	2	1	478.639841	hit              
168.9988	0.8004	84.499421	116	168.998841	169.799234	WkObject	coffee.jpg	1	0	0.000000	correct rejection
169.9996	0.8004	84.999820	117	169.999641	170.800082	WkObject	branch02.jpg	1	0	0.000000	correct rejection
171.0005	0.8004	85.500269	118	171.000538	171.800923	WkObject	surge.jpg	1	0	0.000000	correct rejection
172.0014	0.8003	86.000705	119	172.001409	172.801719	WkObject	surge.jpg	2	1	491.316080	hit              
173.0022	0.8004	86.501088	120	173.002176	173.802605	WkObject	atm.jpg	1	0	0.000000	correct rejection
174.0030	0.8004	87.001518	121	174.003037	174.803401	WkObject	bike.jpg	1	0	0.000000	correct rejection
175.0039	0.8003	87.501952	122	175.003904	175.804237	WkObject	robot.jpg	1	0	0.000000	correct rejection
176.0052	0.7998	88.002622	123	176.005245	176.805082	WkObject	usbkey.jpg	1	0	0.000000	correct rejection
177.0056	0.8003	88.502796	124	177.005592	177.805912	WkObject	good-duffel.jpg	1	0	0.000000	correct rejection
178.0064	0.8003	89.003219	125	178.006437	178.806761	WkObject	Baseball_cap.jpg	1	0	0.000000	correct rejection
179.0072	0.8004	89.503621	126	179.007243	179.807599	WkObject	brass_bell.jpg	1	0	0.000000	correct rejection
180.0081	0.8003	90.004062	127	180.008124	180.808433	WkObject	pen.jpg	1	0	0.000000	correct rejection
181.0090	0.8004	90.504480	128	181.008959	181.809323	WkObject	clock.jpg	1	0	0.000000	correct rejection
182.0098	6.0000	91.004910	fix	182.009819	0.000000	fix	fix	fix	fix	fix	n/a
188.0148	0.7837	94.007392	129	188.014784	188.798515	Scrambled	scambled_sun_aicccdealzkfllqt.jpg	1	0	0.000000	correct rejection
188.9990	0.8003	94.499483	130	188.998967	189.799310	Scrambled	scambled_sun_aghsutguqpsbxebgrot.jpg	1	0	0.000000	correct rejection
189.9998	0.8004	94.999901	131	189.999802	190.800153	Scrambled	scambled_kitchen.jpg	1	0	0.000000	correct rejection
191.0006	0.8004	95.500316	132	191.000631	191.800983	Scrambled	scambled_kitchen.jpg	2	1	459.769011	hit              
192.0015	0.8004	96.000751	133	192.001501	192.801880	Scrambled	scambled_sun_agpxkgsdlobslcplrot.jpg	1	0	0.000000	correct rejection
193.0023	0.8004	96.501140	134	193.002279	193.802673	Scrambled	scambled_sun_agpxkgsdlobslcplrot.jpg	2	1	618.082047	hit              
194.0031	0.8004	97.001567	135	194.003133	194.803555	Scrambled	scambled_farm.jpg	1	0	0.000000	correct rejection
195.0040	0.8003	97.502008	136	195.004016	195.804351	Scrambled	scambled_elevator.jpg	1	0	0.000000	correct rejection
196.0055	0.7997	98.002728	137	196.005455	196.805197	Scrambled	scambled_theater.jpg	1	0	0.000000	correct rejection
197.0057	0.8003	98.502844	138	197.005688	197.806028	Scrambled	scambled_bluff-house-living-room.jpg	1	0	0.000000	correct rejection
198.0065	0.8003	99.003266	139	198.006533	198.806867	Scrambled	scambled_sun_aczmgnjjiykpqyts.jpg	1	0	0.000000	correct rejection
199.0074	0.8003	99.503684	140	199.007367	199.807703	Scrambled	scambled_sun_afjnbldlkryenvxnrot.jpg	1	0	0.000000	correct rejection
200.0082	0.8003	100.004110	141	200.008219	200.808552	Scrambled	scambled_contemporary-home-offices.jpg	1	0	0.000000	correct rejection
201.0091	0.8003	100.504529	142	201.009057	201.809387	Scrambled	scambled_varadero-beach-13897-2560x1600.jpg	1	0	0.000000	correct rejection
202.0099	0.7837	101.004935	143	202.009869	202.793556	Scrambled	scambled_sun_acfzwujvudexaklv.jpg	1	0	0.000000	correct rejection
203.0107	0.7837	101.505368	144	203.010736	203.794433	Scrambled	scambled_may 20th 2011rot.jpg	1	0	0.000000	correct rejection
203.9949	6.0000	101.997433	fix	203.994866	0.000000	fix	fix	fix	fix	fix	n/a
210.0003	0.8000	105.000134	145	210.000267	210.800303	Scene	002.jpg	1	0	0.000000	correct rejection
211.0007	0.8004	105.500373	146	211.000746	211.801107	Scene	098.jpg	1	0	0.000000	correct rejection
212.0016	0.8004	106.000793	147	212.001587	212.801948	Scene	135.jpg	1	0	0.000000	correct rejection
213.0024	0.8004	106.501196	148	213.002391	213.802790	Scene	077.jpg	1	0	0.000000	correct rejection
214.0032	0.8004	107.001621	149	214.003241	214.803617	Scene	077.jpg	2	1	520.945072	hit              
215.0041	0.8005	107.502048	150	215.004096	215.804552	Scene	030.jpg	1	0	0.000000	correct rejection
216.0053	0.8000	108.002658	151	216.005317	216.805310	Scene	030.jpg	2	1	542.768955	hit              
217.0058	0.8004	108.502885	152	217.005769	217.806185	Scene	106.jpg	1	0	0.000000	correct rejection
218.0067	0.8003	109.003334	153	218.006668	218.806994	Scene	107.jpg	1	0	0.000000	correct rejection
219.0075	0.8004	109.503728	154	219.007455	219.807824	Scene	068.jpg	1	0	0.000000	correct rejection
220.0083	0.8004	110.004148	155	220.008295	220.808670	Scene	086.JPG	1	0	0.000000	correct rejection
221.0092	0.8003	110.504578	156	221.009155	221.809503	Scene	080.jpg	1	0	0.000000	correct rejection
222.0100	0.7836	111.005018	157	222.010035	222.793663	Scene	089.jpg	1	0	0.000000	correct rejection
223.0108	0.7837	111.505411	158	223.010822	223.794498	Scene	072.jpg	1	0	0.000000	correct rejection
224.0117	0.7837	112.005837	159	224.011674	224.795348	Scene	079.jpg	1	0	0.000000	correct rejection
225.0125	0.7840	112.506254	160	225.012508	225.796479	Scene	006.jpg	1	0	0.000000	correct rejection
225.9967	6.0000	112.998332	fix	225.996663	0.000000	fix	fix	fix	fix	fix	n/a
232.0017	0.8004	116.000847	161	232.001695	232.802055	WkObject	candy.jpg	1	0	0.000000	correct rejection
233.0026	0.8003	116.501280	162	233.002560	233.802900	WkObject	sattelitedish.jpg	1	0	0.000000	correct rejection
234.0034	0.8004	117.001687	163	234.003374	234.803736	WkObject	sattelitedish.jpg	2	1	480.510950	hit              
235.0042	0.8004	117.502093	164	235.004186	235.804589	WkObject	trunk.jpg	1	0	0.000000	correct rejection
236.0054	0.8000	118.002692	165	236.005384	236.805423	WkObject	jar.jpg	1	0	0.000000	correct rejection
237.0059	0.8003	118.502966	166	237.005931	237.806259	WkObject	razor.jpg	1	0	0.000000	correct rejection
238.0068	0.8003	119.003381	167	238.006762	238.807104	WkObject	lock.jpg	1	0	0.000000	correct rejection
239.0076	0.8003	119.503816	168	239.007631	239.807936	WkObject	scissors.jpg	1	0	0.000000	correct rejection
240.0084	0.8004	120.004218	169	240.008437	240.808788	WkObject	table.jpg	1	0	0.000000	correct rejection
241.0092	0.8004	120.504624	170	241.009247	241.809622	WkObject	bottle.jpg	1	0	0.000000	correct rejection
242.0101	0.7837	121.005056	171	242.010112	242.793780	WkObject	distributor.jpg	1	0	0.000000	correct rejection
243.0109	0.7837	121.505466	172	243.010933	243.794624	WkObject	folding_chair.jpg	1	0	0.000000	correct rejection
244.0118	0.7837	122.005897	173	244.011794	244.795458	WkObject	wax_candle.jpg	1	0	0.000000	correct rejection
245.0127	0.7836	122.506368	174	245.012736	245.796293	WkObject	Water-Cooler.jpg	1	0	0.000000	correct rejection
245.9973	0.7999	122.998636	175	245.997273	246.797132	WkObject	Water-Cooler.jpg	2	1	406.432152	hit              
246.9976	0.8004	123.498816	176	246.997631	247.798008	WkObject	vase.jpg	1	0	0.000000	correct rejection
247.9985	6.0000	123.999249	fix	247.998497	0.000000	fix	fix	fix	fix	fix	n/a
254.0035	0.8004	127.001743	177	254.003486	254.803855	Scrambled	scambled_sun_abfnxcxrrkcbdheo.jpg	1	0	0.000000	correct rejection
255.0048	0.7999	127.502383	178	255.004767	255.804692	Scrambled	scambled_baseballField.jpg	1	0	0.000000	correct rejection
256.0052	0.8003	128.002604	179	256.005209	256.805541	Scrambled	scambled_house (32).jpg	1	0	0.000000	correct rejection
257.0060	0.8003	128.503021	180	257.006041	257.806373	Scrambled	scambled_house (32).jpg	2	0	0.000000	miss             
258.0073	0.7999	129.003644	181	258.007287	258.807215	Scrambled	scambled_sun_ajofholrxfzifcca.jpg	1	1	52.323103	false alarm      
259.0077	0.8004	129.503858	182	259.007716	259.808100	Scrambled	scambled_livingRoom.jpg	1	0	0.000000	correct rejection
260.0086	0.8003	130.004277	183	260.008555	260.808896	Scrambled	scambled_kitchen3.jpg	1	0	0.000000	correct rejection
261.0094	0.8004	130.504683	184	261.009365	261.809757	Scrambled	scambled_tennisCourt.jpg	1	0	0.000000	correct rejection
262.0103	0.7836	131.005130	185	262.010260	262.793897	Scrambled	scambled_Echo_Bedroom.jpg	1	0	0.000000	correct rejection
263.0111	0.7837	131.505543	186	263.011085	263.794749	Scrambled	scambled_Model_bedroom1.jpg	1	0	0.000000	correct rejection
264.0119	0.7836	132.005970	187	264.011940	264.795569	Scrambled	scambled_cafe.jpg	1	0	0.000000	correct rejection
265.0127	0.7837	132.506369	188	265.012737	265.796404	Scrambled	scambled_cafe.jpg	2	0	0.000000	miss             
265.9969	0.8004	132.998425	189	265.996850	266.797250	Scrambled	scambled_sun_agpxkgsdlobslcpl.jpg	1	0	0.000000	correct rejection
266.9979	0.8001	133.498971	190	266.997943	267.798091	Scrambled	scambled_697_1343838978.JPG	1	0	0.000000	correct rejection
267.9985	0.8004	133.999265	191	267.998530	268.798936	Scrambled	scambled_fountain.jpg	1	0	0.000000	correct rejection
268.9994	0.8004	134.499695	192	268.999390	269.799763	Scrambled	scambled_house (33).jpg	1	0	0.000000	correct rejection
270.0003	6.0000	135.000152	fix	270.000303	0.000000	fix	fix	fix	fix	fix	n/a
