onset	duration	TR	Trial	StimOn	StimOff	cond	image	1back	Response	RT	Accuracy
12.0235	0.7837	6.011726	1	12.023452	12.807133	Scene	015.jpg	1	0	0.000000	correct rejection
13.0077	0.8003	6.503849	2	13.007698	13.807977	Scene	011.jpg	1	0	0.000000	correct rejection
14.0084	0.8003	7.004208	3	14.008416	14.808731	Scene	089.jpg	1	0	0.000000	correct rejection
15.0092	0.8004	7.504607	4	15.009215	15.809583	Scene	003.jpg	1	0	0.000000	correct rejection
16.0101	0.7836	8.005057	5	16.010113	16.793727	Scene	002.jpg	1	0	0.000000	correct rejection
17.0113	0.7833	8.505627	6	17.011255	17.794574	Scene	069.jpg	1	0	0.000000	correct rejection
18.0118	0.7837	9.005879	7	18.011758	18.795429	Scene	069.jpg	2	1	738.593102	hit              
19.0126	0.7837	9.506280	8	19.012560	19.796257	Scene	007.jpg	1	0	0.000000	correct rejection
19.9970	0.8001	9.998511	9	19.997023	20.797084	Scene	133.jpg	1	0	0.000000	correct rejection
20.9976	0.8004	10.498780	10	20.997560	21.797938	Scene	133.jpg	2	1	600.765228	hit              
21.9984	0.8004	10.999201	11	21.998403	22.798767	Scene	013.jpg	1	0	0.000000	correct rejection
22.9992	0.8004	11.499608	12	22.999217	23.799623	Scene	038.jpg	1	0	0.000000	correct rejection
24.0001	0.8004	12.000030	13	24.000060	24.800451	Scene	018.jpg	1	0	0.000000	correct rejection
25.0009	0.8004	12.500464	14	25.000929	25.801292	Scene	134.jpg	1	0	0.000000	correct rejection
26.0018	0.8004	13.000890	15	26.001780	26.802198	Scene	065.jpg	1	0	0.000000	correct rejection
27.0026	0.8004	13.501309	16	27.002618	27.803013	Scene	076.jpg	1	0	0.000000	correct rejection
28.0042	6.0000	14.002089	fix	28.004178	0.000000	fix	fix	fix	fix	fix	n/a
34.0249	0.7840	17.012432	17	34.024864	34.808881	Scrambled	scambled_697_1343838978.JPG	1	0	0.000000	correct rejection
35.0094	0.8003	17.504690	18	35.009380	35.809695	Scrambled	scambled_Model_bedroom1.jpg	1	0	0.000000	correct rejection
36.0102	0.7836	18.005112	19	36.010224	36.793855	Scrambled	scambled_sun_acfzwujvudexaklvrot.jpg	1	0	0.000000	correct rejection
37.0110	0.7837	18.505518	20	37.011037	37.794697	Scrambled	scambled_sun_acfzwujvudexaklvrot.jpg	2	1	643.089056	hit              
38.0119	0.7837	19.005950	21	38.011900	38.795570	Scrambled	scambled_baseballField.jpg	1	0	0.000000	correct rejection
39.0127	0.7837	19.506359	22	39.012719	39.796390	Scrambled	scambled_house (16).jpg	1	0	0.000000	correct rejection
39.9969	0.8004	19.998425	23	39.996850	40.797256	Scrambled	scambled_gazebo.jpg	1	0	0.000000	correct rejection
40.9977	0.8004	20.498840	24	40.997680	41.798060	Scrambled	scambled_gazebo.jpg	2	1	544.414997	hit              
41.9985	0.8004	20.999262	25	41.998525	42.798912	Scrambled	scambled_sun_bhacgmcdgrgtyplg.jpg	1	0	0.000000	correct rejection
42.9993	0.8004	21.499654	26	42.999308	43.799719	Scrambled	scambled_sun_agpxkgsdlobslcpl.jpg	1	0	0.000000	correct rejection
44.0002	0.8003	22.000106	27	44.000211	44.800559	Scrambled	scambled_Model_bedroom1rot.jpg	1	0	0.000000	correct rejection
45.0010	0.8004	22.500509	28	45.001018	45.801442	Scrambled	scambled_sun_aiyqlrbcjqqjumtf.jpg	1	0	0.000000	correct rejection
46.0019	0.8005	23.000932	29	46.001864	46.802318	Scrambled	scambled_elevator.jpg	1	0	0.000000	correct rejection
47.0027	0.8004	23.501371	30	47.002742	47.803141	Scrambled	scambled_sun_ahiphsekjihkafsl.jpg	1	0	0.000000	correct rejection
48.0036	0.8003	24.001789	31	48.003579	48.803916	Scrambled	scambled_sun_aczmgnjjiykpqyts.jpg	1	0	0.000000	correct rejection
49.0044	0.8004	24.502189	32	49.004379	49.804765	Scrambled	scambled_library.jpg	1	0	0.000000	correct rejection
50.0054	6.0000	25.002714	fix	50.005428	0.000000	fix	fix	fix	fix	fix	n/a
56.0267	0.7673	28.013331	33	56.026662	56.793996	WkObject	rubik-original.jpg	1	0	0.000000	correct rejection
57.0111	0.7837	28.505569	34	57.011137	57.794803	WkObject	bottle.jpg	1	0	0.000000	correct rejection
58.0120	0.7837	29.006011	35	58.012023	58.795694	WkObject	humidifier.jpg	1	0	0.000000	correct rejection
59.0129	0.7836	29.506428	36	59.012856	59.796490	WkObject	humidifier.jpg	2	1	465.165854	hit              
59.9969	0.8004	29.998471	37	59.996942	60.797354	WkObject	umbrella2.jpg	1	0	0.000000	correct rejection
60.9978	0.8004	30.498906	38	60.997813	61.798192	WkObject	garbage.jpg	1	0	0.000000	correct rejection
61.9987	0.8004	30.999325	39	61.998651	62.799014	WkObject	razor.jpg	1	0	0.000000	correct rejection
62.9995	0.8004	31.499733	40	62.999466	63.799839	WkObject	razor.jpg	2	1	582.334995	hit              
64.0003	0.8004	32.000143	41	64.000287	64.800696	WkObject	basket.jpg	1	0	0.000000	correct rejection
65.0012	0.8004	32.500582	42	65.001165	65.801524	WkObject	radiator.jpg	1	0	0.000000	correct rejection
66.0020	0.8004	33.000995	43	66.001990	66.802381	WkObject	jar.jpg	1	0	0.000000	correct rejection
67.0029	0.8003	33.501426	44	67.002853	67.803196	WkObject	branch02.jpg	1	0	0.000000	correct rejection
68.0037	0.8004	34.001849	45	68.003698	68.804089	WkObject	9volt.jpg	1	0	0.000000	correct rejection
69.0046	0.8003	34.502296	46	69.004592	69.804928	WkObject	coffee.jpg	1	0	0.000000	correct rejection
70.0062	0.7995	35.003091	47	70.006182	70.805722	WkObject	laptop.jpg	1	0	0.000000	correct rejection
71.0070	0.7996	35.503480	48	71.006961	71.806562	WkObject	scissors.jpg	1	0	0.000000	correct rejection
72.0071	6.0000	36.003555	fix	72.007110	0.000000	fix	fix	fix	fix	fix	n/a
78.0284	0.7673	39.014224	49	78.028449	78.795768	Scene	094.jpg	1	0	0.000000	correct rejection
78.9965	0.8001	39.498236	50	78.996472	79.796595	Scene	094.jpg	2	1	497.147083	hit              
79.9971	0.8004	39.998531	51	79.997062	80.797439	Scene	006.jpg	1	0	0.000000	correct rejection
80.9980	0.8003	40.498979	52	80.997959	81.798277	Scene	102.jpg	1	0	0.000000	correct rejection
81.9988	0.8003	40.999407	53	81.998815	82.799117	Scene	090.JPG	1	0	0.000000	correct rejection
82.9995	0.8004	41.499772	54	82.999545	83.799958	Scene	027.jpg	1	0	0.000000	correct rejection
84.0004	0.8004	42.000221	55	84.000443	84.800805	Scene	025.jpg	1	0	0.000000	correct rejection
85.0013	0.8003	42.500654	56	85.001309	85.801643	Scene	078.jpg	1	0	0.000000	correct rejection
86.0021	0.8004	43.001047	57	86.002094	86.802476	Scene	070.jpg	1	0	0.000000	correct rejection
87.0030	0.8003	43.501487	58	87.002974	87.803313	Scene	131.jpg	1	0	0.000000	correct rejection
88.0038	0.8003	44.001904	59	88.003809	88.804154	Scene	046.jpg	1	0	0.000000	correct rejection
89.0046	0.8004	44.502310	60	89.004621	89.805002	Scene	073.jpg	1	0	0.000000	correct rejection
90.0066	0.7992	45.003297	61	90.006594	90.805834	Scene	030.jpg	1	0	0.000000	correct rejection
91.0071	0.7995	45.503568	62	91.007136	91.806676	Scene	132.jpg	1	0	0.000000	correct rejection
92.0072	0.8003	46.003601	63	92.007203	92.807526	Scene	080.jpg	1	0	0.000000	correct rejection
93.0080	0.8003	46.504018	64	93.008036	93.808353	Scene	080.jpg	2	1	541.436911	hit              
94.0089	6.0000	47.004430	fix	94.008860	0.000000	fix	fix	fix	fix	fix	n/a
100.0136	0.7840	50.006782	65	100.013564	100.797583	WkObject	calculator01.jpg	1	0	0.000000	correct rejection
100.9980	0.8004	50.499015	66	100.998031	101.798397	WkObject	camera.jpg	1	0	0.000000	correct rejection
101.9989	0.8004	50.999437	67	101.998875	102.799238	WkObject	box.jpg	1	0	0.000000	correct rejection
102.9997	0.8004	51.499830	68	102.999661	103.800081	WkObject	box.jpg	2	0	0.000000	miss             
104.0005	0.8004	52.000261	69	104.000523	104.800925	WkObject	vase.jpg	1	0	0.000000	correct rejection
105.0014	0.8004	52.500689	70	105.001378	105.801753	WkObject	tree.jpg	1	0	0.000000	correct rejection
106.0022	0.8004	53.001101	71	106.002202	106.802601	WkObject	clock.jpg	1	0	0.000000	correct rejection
107.0031	0.8004	53.501534	72	107.003069	107.803443	WkObject	safe.jpg	1	0	0.000000	correct rejection
108.0039	0.8004	54.001941	73	108.003882	108.804279	WkObject	hotairballoon.jpg	1	0	0.000000	correct rejection
109.0047	0.8004	54.502373	74	109.004746	109.805120	WkObject	wax_candle.jpg	1	0	0.000000	correct rejection
110.0061	0.7999	55.003046	75	110.006093	110.805957	WkObject	pen.jpg	1	0	0.000000	correct rejection
111.0070	0.7997	55.503525	76	111.007050	111.806797	WkObject	lock.jpg	1	0	0.000000	correct rejection
112.0073	0.8003	56.003657	77	112.007315	112.807641	WkObject	brass_bell.jpg	1	0	0.000000	correct rejection
113.0081	0.8004	56.504057	78	113.008114	113.808481	WkObject	spraybottle01.jpg	1	0	0.000000	correct rejection
114.0090	0.8003	57.004481	79	114.008962	114.809308	WkObject	spraybottle01.jpg	2	1	516.220093	hit              
115.0098	0.7837	57.504898	80	115.009797	115.793535	WkObject	trunk.jpg	1	0	0.000000	correct rejection
116.0107	6.0000	58.005329	fix	116.010659	0.000000	fix	fix	fix	fix	fix	n/a
122.0157	0.7837	61.007828	81	122.015657	122.799346	Scrambled	scambled_house (34).jpg	1	0	0.000000	correct rejection
122.9998	0.8004	61.499914	82	122.999828	123.800182	Scrambled	scambled_sun_afjnbldlkryenvxnrot.jpg	1	0	0.000000	correct rejection
124.0007	0.8003	62.000342	83	124.000685	124.801033	Scrambled	scambled_livingRoom.jpg	1	0	0.000000	correct rejection
125.0015	0.8004	62.500759	84	125.001518	125.801887	Scrambled	scambled_Echo_Bedroom.jpg	1	0	0.000000	correct rejection
126.0024	0.8004	63.001178	85	126.002356	126.802718	Scrambled	scambled_sun_abfnxcxrrkcbdheo.jpg	1	0	0.000000	correct rejection
127.0032	0.8004	63.501585	86	127.003170	127.803564	Scrambled	scambled_sun_abfnxcxrrkcbdheorot.jpg	1	0	0.000000	correct rejection
128.0040	0.8004	64.002005	87	128.004009	128.804388	Scrambled	scambled_sun_abkmizyubcfcudbr.jpg	1	0	0.000000	correct rejection
129.0049	0.8003	64.502457	88	129.004914	129.805231	Scrambled	scambled_sun_afjnbldlkryenvxn.jpg	1	0	0.000000	correct rejection
130.0060	0.8001	65.002979	89	130.005958	130.806070	Scrambled	scambled_may 20th 2011 002.JPG	1	0	0.000000	correct rejection
131.0076	0.7993	65.503797	90	131.007595	131.806907	Scrambled	scambled_may 20th 2011 002.JPG	2	1	597.401142	hit              
132.0074	0.8003	66.003722	91	132.007444	132.807786	Scrambled	scambled_varadero-beach-13897-2560x1600.jpg	1	0	0.000000	correct rejection
133.0083	0.8003	66.504151	92	133.008301	133.808589	Scrambled	scambled_farm.jpg	1	0	0.000000	correct rejection
134.0091	0.8003	67.004565	93	134.009130	134.809427	Scrambled	scambled_farm.jpg	2	1	507.819891	hit              
135.0100	0.7836	67.505013	94	135.010027	135.793630	Scrambled	scambled_livingRoomrot.jpg	1	0	0.000000	correct rejection
136.0108	0.7836	68.005405	95	136.010811	136.794434	Scrambled	scambled_sun_bgmylyaviikfuowd.jpg	1	0	0.000000	correct rejection
137.0116	0.7837	68.505802	96	137.011604	137.795269	Scrambled	scambled_sun_acfzwujvudexaklv.jpg	1	0	0.000000	correct rejection
137.9958	6.0000	68.997888	fix	137.995776	0.000000	fix	fix	fix	fix	fix	n/a
144.0005	0.8007	72.000239	97	144.000478	144.801152	Scene	116.jpg	1	0	0.000000	correct rejection
145.0016	0.8004	72.500788	98	145.001577	145.801988	Scene	033.jpg	1	0	0.000000	correct rejection
146.0025	0.8004	73.001228	99	146.002456	146.802831	Scene	075.jpg	1	0	0.000000	correct rejection
147.0033	0.8003	73.501660	100	147.003321	147.803665	Scene	045.jpg	1	0	0.000000	correct rejection
148.0042	0.8003	74.002100	101	148.004201	148.804510	Scene	020.jpg	1	0	0.000000	correct rejection
149.0050	0.8004	74.502490	102	149.004980	149.805352	Scene	010.jpg	1	0	0.000000	correct rejection
150.0062	0.8000	75.003075	103	150.006150	150.806196	Scene	130.jpg	1	0	0.000000	correct rejection
151.0068	0.8002	75.503410	104	151.006820	151.807029	Scene	130.jpg	2	1	589.926958	hit              
152.0076	0.8003	76.003794	105	152.007589	152.807871	Scene	009.jpg	1	0	0.000000	correct rejection
153.0084	0.8003	76.504187	106	153.008375	153.808710	Scene	077.jpg	1	0	0.000000	correct rejection
154.0092	0.8003	77.004623	107	154.009246	154.809549	Scene	032.jpg	1	0	0.000000	correct rejection
155.0101	0.7836	77.505042	108	155.010084	155.793710	Scene	085.jpg	1	0	0.000000	correct rejection
156.0109	0.7836	78.005463	109	156.010926	156.794552	Scene	040.jpg	1	0	0.000000	correct rejection
157.0117	0.7837	78.505862	110	157.011724	157.795386	Scene	114.jpg	1	0	0.000000	correct rejection
158.0126	0.7837	79.006287	111	158.012574	158.796289	Scene	072.jpg	1	0	0.000000	correct rejection
158.9967	0.8004	79.498366	112	158.996733	159.797118	Scene	072.jpg	2	1	703.979015	hit              
159.9976	6.0000	79.998790	fix	159.997580	0.000000	fix	fix	fix	fix	fix	n/a
166.0023	0.8007	83.001138	113	166.002277	166.802945	Scrambled	scambled_country-house-bedroom-design-ideas-585x587.jpg	1	0	0.000000	correct rejection
167.0034	0.8004	83.501705	114	167.003410	167.803790	Scrambled	scambled_bluff-house-living-room.jpg	1	0	0.000000	correct rejection
168.0043	0.8004	84.002126	115	168.004252	168.804623	Scrambled	scambled_sun_acggnoeidnfjlcisrot.jpg	1	0	0.000000	correct rejection
169.0051	0.8004	84.502541	116	169.005083	169.805471	Scrambled	scambled_cafe.jpg	1	0	0.000000	correct rejection
170.0060	0.8003	85.002989	117	170.005979	170.806308	Scrambled	scambled_gym.jpg	1	0	0.000000	correct rejection
171.0071	0.8001	85.503537	118	171.007074	171.807140	Scrambled	scambled_may 20th 2011rot.jpg	1	0	0.000000	correct rejection
172.0079	0.8001	86.003930	119	172.007861	172.807985	Scrambled	scambled_Kitchen NW.JPG	1	0	0.000000	correct rejection
173.0085	0.8003	86.504256	120	173.008512	173.808818	Scrambled	scambled_house (32).jpg	1	0	0.000000	correct rejection
174.0094	0.8003	87.004676	121	174.009353	174.809662	Scrambled	scambled_kitchen.jpg	1	0	0.000000	correct rejection
175.0102	0.7836	87.505093	122	175.010185	175.793831	Scrambled	scambled_sun_acggnoeidnfjlcis.jpg	1	0	0.000000	correct rejection
176.0111	0.7836	88.005526	123	176.011052	176.794668	Scrambled	scambled_sun_acggnoeidnfjlcis.jpg	2	1	577.392101	hit              
177.0119	0.7836	88.505958	124	177.011917	177.795508	Scrambled	scambled_sun_aowymmyymtohyobt.jpg	1	0	0.000000	correct rejection
178.0127	0.7836	89.006355	125	178.012711	178.796340	Scrambled	scambled_sun_aowymmyymtohyobt.jpg	2	1	623.708010	hit              
178.9968	0.8003	89.498419	126	178.996839	179.797185	Scrambled	scambled_theater.jpg	1	0	0.000000	correct rejection
179.9977	0.8003	89.998832	127	179.997664	180.798014	Scrambled	scambled_sun_aghsutguqpsbxebgrot.jpg	1	0	0.000000	correct rejection
180.9985	0.8003	90.499257	128	180.998514	181.798860	Scrambled	scambled_sun_djdeitrckcbvpdam.jpg	1	0	0.000000	correct rejection
181.9994	6.0000	90.999707	fix	181.999413	0.000000	fix	fix	fix	fix	fix	n/a
188.0041	0.8007	94.002041	129	188.004082	188.804741	WkObject	pizza_box.jpg	1	0	0.000000	correct rejection
189.0052	0.8004	94.502609	130	189.005218	189.805578	WkObject	window.jpg	1	0	0.000000	correct rejection
190.0064	0.8000	95.003224	131	190.006449	190.806415	WkObject	window.jpg	2	1	541.828871	hit              
191.0072	0.8000	95.503615	132	191.007230	191.807271	WkObject	table.jpg	1	0	0.000000	correct rejection
192.0078	0.8003	96.003894	133	192.007788	192.808098	WkObject	lamp.jpg	1	0	0.000000	correct rejection
193.0086	0.8003	96.504303	134	193.008607	193.808936	WkObject	lamp.jpg	2	1	595.681906	hit              
194.0095	0.8003	97.004764	135	194.009528	194.809778	WkObject	bike.jpg	1	0	0.000000	correct rejection
195.0103	0.7836	97.505143	136	195.010286	195.793935	WkObject	armyknife.jpg	1	0	0.000000	correct rejection
196.0111	0.7836	98.005574	137	196.011148	196.794790	WkObject	fan.jpg	1	0	0.000000	correct rejection
197.0120	0.7837	98.505979	138	197.011958	197.795626	WkObject	robot.jpg	1	0	0.000000	correct rejection
197.9962	0.8003	98.998102	139	197.996204	198.796461	WkObject	crate.jpg	1	0	0.000000	correct rejection
198.9969	0.8004	99.498451	140	198.996902	199.797300	WkObject	ac.jpg	1	0	0.000000	correct rejection
199.9978	0.8004	99.998877	141	199.997755	200.798143	WkObject	backpack.jpg	1	0	0.000000	correct rejection
200.9986	0.8004	100.499309	142	200.998619	201.798983	WkObject	candy.jpg	1	0	0.000000	correct rejection
201.9994	0.8004	100.999707	143	201.999414	202.799818	WkObject	usbkey.jpg	1	0	0.000000	correct rejection
203.0003	0.8004	101.500135	144	203.000270	203.800699	WkObject	surge.jpg	1	0	0.000000	correct rejection
204.0012	6.0000	102.000580	fix	204.001161	0.000000	fix	fix	fix	fix	fix	n/a
210.0061	0.8005	105.003065	145	210.006130	210.806581	Scene	086.JPG	1	0	0.000000	correct rejection
211.0072	0.8002	105.503606	146	211.007213	211.807377	Scene	068.jpg	1	0	0.000000	correct rejection
212.0079	0.8003	106.003951	147	212.007903	212.808225	Scene	004.jpg	1	0	0.000000	correct rejection
213.0087	0.8004	106.504350	148	213.008700	213.809060	Scene	098.jpg	1	0	0.000000	correct rejection
214.0096	0.8003	107.004797	149	214.009593	214.809896	Scene	108.jpg	1	0	0.000000	correct rejection
215.0105	0.7836	107.505227	150	215.010454	215.794059	Scene	083.jpg	1	0	0.000000	correct rejection
216.0113	0.7836	108.005664	151	216.011329	216.794893	Scene	082.jpg	1	0	0.000000	correct rejection
217.0121	0.7836	108.506050	152	217.012100	217.795744	Scene	107.jpg	1	0	0.000000	correct rejection
217.9964	0.8001	108.998217	153	217.996433	218.796575	Scene	107.jpg	2	1	511.520863	hit              
218.9970	0.8005	109.498506	154	218.997012	219.797468	Scene	017.jpg	1	0	0.000000	correct rejection
219.9979	0.8004	109.998945	155	219.997890	220.798261	Scene	021.jpg	1	0	0.000000	correct rejection
220.9987	0.8004	110.499372	156	220.998745	221.799097	Scene	106.jpg	1	0	0.000000	correct rejection
221.9996	0.8004	110.999779	157	221.999557	222.799936	Scene	074.jpg	1	0	0.000000	correct rejection
223.0004	0.8004	111.500199	158	223.000399	223.800775	Scene	074.jpg	2	0	0.000000	miss             
224.0012	0.8004	112.000622	159	224.001245	224.801612	Scene	058.jpg	1	0	0.000000	correct rejection
225.0021	0.8004	112.501031	160	225.002063	225.802458	Scene	135.jpg	1	0	0.000000	correct rejection
226.0029	6.0000	113.001475	fix	226.002951	0.000000	fix	fix	fix	fix	fix	n/a
232.0082	0.8001	116.004116	161	232.008233	232.808341	Scrambled	scambled_home-office-design-ideas.jpg	1	0	0.000000	correct rejection
233.0090	0.8001	116.504523	162	233.009046	233.809183	Scrambled	scambled_sun_ajofholrxfzifcca.jpg	1	0	0.000000	correct rejection
234.0097	0.7837	117.004840	163	234.009680	234.793333	Scrambled	scambled_varadero-beach-13915-2560x1600.jpg	1	0	0.000000	correct rejection
235.0105	0.7837	117.505250	164	235.010499	235.794183	Scrambled	scambled_house (19).jpg	1	0	0.000000	correct rejection
236.0114	0.7836	118.005682	165	236.011365	236.795004	Scrambled	scambled_house (19).jpg	2	1	648.377895	hit              
237.0122	0.7837	118.506086	166	237.012173	237.795910	Scrambled	scambled_sun_aghsutguqpsbxebg.jpg	1	0	0.000000	correct rejection
237.9963	0.8004	118.998153	167	237.996307	238.796696	Scrambled	scambled_tennisCourt.jpg	1	0	0.000000	correct rejection
238.9972	0.8004	119.498582	168	238.997165	239.797530	Scrambled	scambled_hairSalon.jpg	1	0	0.000000	correct rejection
239.9980	0.8004	119.998979	169	239.997958	240.798379	Scrambled	scambled_sun_agpxkgsdlobslcplrot.jpg	1	0	0.000000	correct rejection
240.9988	0.8004	120.499423	170	240.998846	241.799219	Scrambled	scambled_kitchen002.jpg	1	0	0.000000	correct rejection
241.9997	0.8004	120.999828	171	241.999657	242.800057	Scrambled	scambled_contemporary-home-offices.jpg	1	0	0.000000	correct rejection
243.0005	0.8004	121.500247	172	243.000495	243.800901	Scrambled	scambled_Furnished-Office.jpg	1	0	0.000000	correct rejection
244.0013	0.8004	122.000668	173	244.001337	244.801729	Scrambled	scambled_fountain.jpg	1	0	0.000000	correct rejection
245.0022	0.8003	122.501112	174	245.002225	245.802573	Scrambled	scambled_kitchen3.jpg	1	0	0.000000	correct rejection
246.0031	0.8003	123.001534	175	246.003069	246.803405	Scrambled	scambled_kitchen3.jpg	2	1	520.632982	hit              
247.0038	0.8004	123.501920	176	247.003841	247.804263	Scrambled	scambled_sun_abkmizyubcfcudbrrot.jpg	1	0	0.000000	correct rejection
248.0048	6.0000	124.002400	fix	248.004801	0.000000	fix	fix	fix	fix	fix	n/a
254.0261	0.7673	127.013068	177	254.026137	254.793456	WkObject	Helicopter.jpg	1	0	0.000000	correct rejection
255.0106	0.7836	127.505319	178	255.010639	255.794289	WkObject	Helicopter.jpg	2	1	625.021935	hit              
256.0115	0.7836	128.005751	179	256.011502	256.795128	WkObject	atm.jpg	1	0	0.000000	correct rejection
257.0123	0.7837	128.506146	180	257.012292	257.795978	WkObject	glasses.jpg	1	0	0.000000	correct rejection
257.9964	0.8004	128.998210	181	257.996420	258.796809	WkObject	glasses.jpg	2	1	631.063938	hit              
258.9973	0.8004	129.498649	182	258.997299	259.797654	WkObject	Water-Cooler.jpg	1	0	0.000000	correct rejection
259.9981	0.8003	129.999067	183	259.998134	260.798482	WkObject	bench.jpg	1	0	0.000000	correct rejection
260.9989	0.8004	130.499465	184	260.998931	261.799323	WkObject	cart.jpg	1	0	0.000000	correct rejection
261.9998	0.8004	130.999880	185	261.999761	262.800173	WkObject	cooler.jpg	1	0	0.000000	correct rejection
263.0006	0.8004	131.500301	186	263.000603	263.801011	WkObject	chess.JPG	1	0	0.000000	correct rejection
264.0014	0.8004	132.000723	187	264.001446	264.801851	WkObject	sattelitedish.jpg	1	0	0.000000	correct rejection
265.0023	0.8004	132.501149	188	265.002299	265.802697	WkObject	good-duffel.jpg	1	0	0.000000	correct rejection
266.0032	0.8003	133.001593	189	266.003187	266.803535	WkObject	plant01.jpg	1	0	0.000000	correct rejection
267.0040	0.8004	133.501987	190	267.003974	267.804364	WkObject	step_stool.jpg	1	0	0.000000	correct rejection
268.0060	0.7992	134.003011	191	268.006022	268.805212	WkObject	Newspaper.jpg	1	0	0.000000	correct rejection
269.0057	0.8003	134.502864	192	269.005728	269.806049	WkObject	fireExt.jpg	1	0	0.000000	correct rejection
270.0066	6.0000	135.003314	fix	270.006629	0.000000	fix	fix	fix	fix	fix	n/a
