onset	duration	TR	Trial	StimOn	StimOff	cond	image	1back	Response	RT	Accuracy
12.0262	0.7837	6.013118	1	12.026235	12.809907	Scrambled	scambled_sun_afjnbldlkryenvxnrot.jpg	1	0	0.000000	correct rejection
13.0111	0.7830	6.505532	2	13.011063	13.794076	Scrambled	scambled_baseballField.jpg	1	0	0.000000	correct rejection
14.0112	0.7836	7.005605	3	14.011209	14.794825	Scrambled	scambled_country-house-bedroom-design-ideas-585x587.jpg	1	0	0.000000	correct rejection
15.0121	0.7836	7.506026	4	15.012052	15.795678	Scrambled	scambled_fountain.jpg	1	0	0.000000	correct rejection
16.0129	0.7836	8.006440	5	16.012880	16.796507	Scrambled	scambled_fountain.jpg	2	1	562.134027	hit              
17.0142	0.7832	8.507094	6	17.014187	17.797360	Scrambled	scambled_sun_agpxkgsdlobslcpl.jpg	1	0	0.000000	correct rejection
17.9978	0.8004	8.998888	7	17.997776	18.798197	Scrambled	scambled_farm.jpg	1	0	0.000000	correct rejection
18.9987	0.8004	9.499326	8	18.998653	19.799037	Scrambled	scambled_sun_aowymmyymtohyobt.jpg	1	0	0.000000	correct rejection
19.9995	0.8003	9.999763	9	19.999527	20.799871	Scrambled	scambled_sun_aowymmyymtohyobt.jpg	2	1	551.543951	hit              
21.0004	0.8003	10.500190	10	21.000381	21.800717	Scrambled	scambled_house (19).jpg	1	0	0.000000	correct rejection
22.0012	0.8003	11.000599	11	22.001197	22.801536	Scrambled	scambled_house (32).jpg	1	0	0.000000	correct rejection
23.0020	0.8004	11.501004	12	23.002009	23.802395	Scrambled	scambled_sun_abkmizyubcfcudbr.jpg	1	0	0.000000	correct rejection
24.0029	0.8004	12.001439	13	24.002878	24.803249	Scrambled	scambled_gym.jpg	1	0	0.000000	correct rejection
25.0037	0.8004	12.501853	14	25.003707	25.804111	Scrambled	scambled_sun_aiyqlrbcjqqjumtf.jpg	1	0	0.000000	correct rejection
26.0046	0.8004	13.002280	15	26.004560	26.804942	Scrambled	scambled_kitchen.jpg	1	0	0.000000	correct rejection
27.0054	0.8004	13.502677	16	27.005354	27.805774	Scrambled	scambled_sun_ajofholrxfzifcca.jpg	1	0	0.000000	correct rejection
28.0064	6.0000	14.003200	fix	28.006400	0.000000	fix	fix	fix	fix	fix	n/a
34.0276	0.7673	17.013816	17	34.027632	34.794964	WkObject	plant01.jpg	1	0	0.000000	correct rejection
35.0121	0.7837	17.506055	18	35.012109	35.795787	WkObject	distributor.jpg	1	0	0.000000	correct rejection
35.9966	0.8000	17.998316	19	35.996631	36.796631	WkObject	atm.jpg	1	0	0.000000	correct rejection
36.9971	0.8004	18.498549	20	36.997099	37.797474	WkObject	spraybottle01.jpg	1	0	0.000000	correct rejection
37.9979	0.8004	18.998963	21	37.997927	38.798315	WkObject	Water-Cooler.jpg	1	0	0.000000	correct rejection
38.9988	0.8004	19.499401	22	38.998802	39.799164	WkObject	table.jpg	1	0	0.000000	correct rejection
39.9996	0.8004	19.999810	23	39.999619	40.799983	WkObject	table.jpg	2	1	415.261030	hit              
41.0004	0.8004	20.500221	24	41.000441	41.800877	WkObject	basket.jpg	1	0	0.000000	correct rejection
42.0013	0.8004	21.000651	25	42.001303	42.801659	WkObject	bike.jpg	1	0	0.000000	correct rejection
43.0022	0.8003	21.501084	26	43.002168	43.802494	WkObject	fan.jpg	1	0	0.000000	correct rejection
44.0030	0.8004	22.001495	27	44.002990	44.803357	WkObject	fan.jpg	2	1	371.733904	hit              
45.0038	0.8004	22.501915	28	45.003830	45.804204	WkObject	cooler.jpg	1	0	0.000000	correct rejection
46.0047	0.8003	23.002360	29	46.004720	46.805050	WkObject	razor.jpg	1	0	0.000000	correct rejection
47.0060	0.7999	23.502985	30	47.005970	47.805856	WkObject	step_stool.jpg	1	0	0.000000	correct rejection
48.0065	0.8002	24.003235	31	48.006471	48.806716	WkObject	trunk.jpg	1	0	0.000000	correct rejection
49.0072	0.8004	24.503595	32	49.007190	49.807611	WkObject	window.jpg	1	0	0.000000	correct rejection
50.0082	6.0000	25.004081	fix	50.008162	0.000000	fix	fix	fix	fix	fix	n/a
56.0295	0.7673	28.014748	33	56.029496	56.796775	Scene	020.jpg	1	0	0.000000	correct rejection
56.9972	0.8004	28.498603	34	56.997205	57.797574	Scene	003.jpg	1	0	0.000000	correct rejection
57.9981	0.8004	28.999038	35	57.998076	58.798427	Scene	073.jpg	1	0	0.000000	correct rejection
58.9989	0.8004	29.499451	36	58.998901	59.799267	Scene	132.jpg	1	0	0.000000	correct rejection
59.9997	0.8004	29.999867	37	59.999734	60.800124	Scene	078.jpg	1	0	0.000000	correct rejection
61.0005	0.8004	30.500274	38	61.000548	61.800949	Scene	130.jpg	1	0	0.000000	correct rejection
62.0014	0.8003	31.000713	39	62.001426	62.801776	Scene	086.JPG	1	0	0.000000	correct rejection
63.0022	0.8004	31.501119	40	63.002238	63.802613	Scene	086.JPG	2	1	436.249971	hit              
64.0031	0.8004	32.001547	41	64.003093	64.803518	Scene	013.jpg	1	0	0.000000	correct rejection
65.0040	0.8003	32.501982	42	65.003964	65.804286	Scene	066.jpg	1	0	0.000000	correct rejection
66.0048	0.8003	33.002408	43	66.004816	66.805131	Scene	030.jpg	1	0	0.000000	correct rejection
67.0056	0.8003	33.502820	44	67.005639	67.805972	Scene	004.jpg	1	0	0.000000	correct rejection
68.0065	0.8003	34.003266	45	68.006531	68.806802	Scene	004.jpg	2	1	488.016129	hit              
69.0074	0.8003	34.503688	46	69.007376	69.807662	Scene	080.jpg	1	0	0.000000	correct rejection
70.0082	0.8003	35.004075	47	70.008150	70.808496	Scene	058.jpg	1	0	0.000000	correct rejection
71.0090	0.8003	35.504496	48	71.008993	71.809326	Scene	090.JPG	1	0	0.000000	correct rejection
72.0099	6.0000	36.004928	fix	72.009857	0.000000	fix	fix	fix	fix	fix	n/a
78.0313	0.7673	39.015628	49	78.031256	78.798525	WkObject	robot.jpg	1	0	0.000000	correct rejection
78.9990	0.8004	39.499511	50	78.999022	79.799422	WkObject	fireExt.jpg	1	0	0.000000	correct rejection
79.9999	0.8004	39.999936	51	79.999871	80.800272	WkObject	good-duffel.jpg	1	0	0.000000	correct rejection
81.0007	0.8006	40.500345	52	81.000689	81.801290	WkObject	clock.jpg	1	0	0.000000	correct rejection
82.0015	0.8004	41.000764	53	82.001527	82.801902	WkObject	rubik-original.jpg	1	0	0.000000	correct rejection
83.0024	0.8003	41.501195	54	83.002390	83.802730	WkObject	jar.jpg	1	0	0.000000	correct rejection
84.0032	0.8004	42.001588	55	84.003176	84.803565	WkObject	Baseball_cap.jpg	1	0	0.000000	correct rejection
85.0041	0.8003	42.502048	56	85.004097	85.804395	WkObject	Baseball_cap.jpg	2	1	434.131145	hit              
86.0049	0.8003	43.002464	57	86.004928	86.805242	WkObject	sattelitedish.jpg	1	0	0.000000	correct rejection
87.0058	0.8003	43.502891	58	87.005782	87.806084	WkObject	candy.jpg	1	0	0.000000	correct rejection
88.0066	0.8004	44.003286	59	88.006573	88.806929	WkObject	9volt.jpg	1	0	0.000000	correct rejection
89.0074	0.8003	44.503716	60	89.007432	89.807779	WkObject	surge.jpg	1	0	0.000000	correct rejection
90.0082	0.8004	45.004115	61	90.008230	90.808613	WkObject	surge.jpg	2	1	390.089989	hit              
91.0091	0.8003	45.504568	62	91.009136	91.809485	WkObject	lamp.jpg	1	0	0.000000	correct rejection
92.0100	0.7836	46.004977	63	92.009953	92.793595	WkObject	bench.jpg	1	0	0.000000	correct rejection
93.0108	0.7837	46.505376	64	93.010752	93.794435	WkObject	vase.jpg	1	0	0.000000	correct rejection
93.9949	6.0000	46.997465	fix	93.994930	0.000000	fix	fix	fix	fix	fix	n/a
100.0003	0.8000	50.000152	65	100.000305	100.800313	Scene	089.jpg	1	0	0.000000	correct rejection
101.0008	0.8004	50.500399	66	101.000797	101.801155	Scene	085.jpg	1	0	0.000000	correct rejection
102.0017	0.8003	51.000833	67	102.001666	102.801991	Scene	131.jpg	1	0	0.000000	correct rejection
103.0025	0.8004	51.501227	68	103.002453	103.802829	Scene	027.jpg	1	0	0.000000	correct rejection
104.0033	0.8004	52.001649	69	104.003298	104.803674	Scene	027.jpg	2	1	490.846872	hit              
105.0042	0.8004	52.502083	70	105.004166	105.804548	Scene	108.jpg	1	0	0.000000	correct rejection
106.0050	0.8004	53.002504	71	106.005009	106.805365	Scene	065.jpg	1	0	0.000000	correct rejection
107.0058	0.8003	53.502923	72	107.005847	107.806191	Scene	065.jpg	2	1	632.158041	hit              
108.0067	0.8003	54.003368	73	108.006736	108.807078	Scene	021.jpg	1	0	0.000000	correct rejection
109.0075	0.8003	54.503767	74	109.007535	109.807880	Scene	014.jpg	1	0	0.000000	correct rejection
110.0084	0.8003	55.004206	75	110.008412	110.808709	Scene	102.jpg	1	0	0.000000	correct rejection
111.0092	0.8003	55.504608	76	111.009215	111.809553	Scene	076.jpg	1	0	0.000000	correct rejection
112.0101	0.7836	56.005039	77	112.010078	112.793710	Scene	135.jpg	1	0	0.000000	correct rejection
113.0109	0.7837	56.505452	78	113.010903	113.794555	Scene	007.jpg	1	0	0.000000	correct rejection
114.0117	0.7837	57.005862	79	114.011724	114.795393	Scene	098.jpg	1	0	0.000000	correct rejection
115.0126	0.7837	57.506281	80	115.012563	115.796235	Scene	033.jpg	1	0	0.000000	correct rejection
115.9968	6.0000	57.998382	fix	115.996764	0.000000	fix	fix	fix	fix	fix	n/a
122.0181	0.7840	61.009061	81	122.018121	122.802111	Scrambled	scambled_sun_afjnbldlkryenvxn.jpg	1	0	0.000000	correct rejection
123.0026	0.8003	61.501308	82	123.002616	123.802960	Scrambled	scambled_house (34).jpg	1	0	0.000000	correct rejection
124.0034	0.8004	62.001704	83	124.003408	124.803790	Scrambled	scambled_Model_bedroom1.jpg	1	0	0.000000	correct rejection
125.0043	0.8003	62.502143	84	125.004286	125.804634	Scrambled	scambled_varadero-beach-13897-2560x1600.jpg	1	0	0.000000	correct rejection
126.0059	0.7996	63.002955	85	126.005910	126.805469	Scrambled	scambled_elevator.jpg	1	0	0.000000	correct rejection
127.0060	0.8004	63.502983	86	127.005966	127.806320	Scrambled	scambled_clothingStore.jpg	1	0	0.000000	correct rejection
128.0069	0.8003	64.003431	87	128.006862	128.807146	Scrambled	scambled_hairSalon.jpg	1	0	0.000000	correct rejection
129.0077	0.8003	64.503842	88	129.007683	129.807989	Scrambled	scambled_home-office-design-ideas.jpg	1	0	0.000000	correct rejection
130.0085	0.8004	65.004242	89	130.008484	130.808835	Scrambled	scambled_Model_bedroom1rot.jpg	1	0	0.000000	correct rejection
131.0093	0.8003	65.504673	90	131.009346	131.809669	Scrambled	scambled_library.jpg	1	0	0.000000	correct rejection
132.0102	0.7836	66.005099	91	132.010198	132.793827	Scrambled	scambled_sun_acfzwujvudexaklv.jpg	1	0	0.000000	correct rejection
133.0110	0.7836	66.505513	92	133.011026	133.794671	Scrambled	scambled_may 20th 2011 002.JPG	1	0	0.000000	correct rejection
134.0119	0.7836	67.005937	93	134.011875	134.795506	Scrambled	scambled_sun_agpxkgsdlobslcplrot.jpg	1	0	0.000000	correct rejection
135.0127	0.7837	67.506325	94	135.012650	135.796340	Scrambled	scambled_sun_agpxkgsdlobslcplrot.jpg	2	1	392.995119	hit              
135.9968	0.8004	67.998409	95	135.996817	136.797247	Scrambled	scambled_sun_aghsutguqpsbxebg.jpg	1	0	0.000000	correct rejection
136.9977	0.8004	68.498826	96	136.997652	137.798030	Scrambled	scambled_sun_aghsutguqpsbxebg.jpg	2	1	400.068045	hit              
137.9986	6.0000	68.999280	fix	137.998560	0.000000	fix	fix	fix	fix	fix	n/a
144.0035	0.8004	72.001772	97	144.003543	144.803900	WkObject	chess.JPG	1	0	0.000000	correct rejection
145.0044	0.8004	72.502192	98	145.004384	145.804739	WkObject	chess.JPG	2	1	377.104998	hit              
146.0052	0.8003	73.002619	99	146.005238	146.805585	WkObject	box.jpg	1	0	0.000000	correct rejection
147.0061	0.8003	73.503055	100	147.006110	147.806430	WkObject	Helicopter.jpg	1	0	0.000000	correct rejection
148.0069	0.8003	74.003460	101	148.006919	148.807266	WkObject	lock.jpg	1	0	0.000000	correct rejection
149.0077	0.8004	74.503864	102	149.007727	149.808117	WkObject	lock.jpg	2	1	485.673904	hit              
150.0087	0.8003	75.004328	103	150.008656	150.808943	WkObject	umbrella2.jpg	1	0	0.000000	correct rejection
151.0095	0.8003	75.504731	104	151.009462	151.809780	WkObject	calculator01.jpg	1	0	0.000000	correct rejection
152.0103	0.7836	76.005157	105	152.010313	152.793941	WkObject	folding_chair.jpg	1	0	0.000000	correct rejection
153.0112	0.7836	76.505589	106	153.011177	153.794783	WkObject	tree.jpg	1	0	0.000000	correct rejection
154.0120	0.7836	77.006000	107	154.011999	154.795623	WkObject	flashlight.jpg	1	0	0.000000	correct rejection
155.0128	0.7837	77.506404	108	155.012808	155.796461	WkObject	brass_bell.jpg	1	0	0.000000	correct rejection
156.0137	0.7836	78.006830	109	156.013660	156.797300	WkObject	garbage.jpg	1	0	0.000000	correct rejection
156.9978	0.8004	78.498883	110	156.997766	157.798142	WkObject	scissors.jpg	1	0	0.000000	correct rejection
157.9986	0.8004	78.999308	111	157.998615	158.798982	WkObject	hotairballoon.jpg	1	0	0.000000	correct rejection
158.9994	0.8004	79.499717	112	158.999434	159.799817	WkObject	safe.jpg	1	0	0.000000	correct rejection
160.0003	6.0000	80.000162	fix	160.000323	0.000000	fix	fix	fix	fix	fix	n/a
166.0053	0.8004	83.002671	113	166.005342	166.805693	Scrambled	scambled_Echo_Bedroom.jpg	1	0	0.000000	correct rejection
167.0062	0.8003	83.503093	114	167.006185	167.806534	Scrambled	scambled_sun_acggnoeidnfjlcis.jpg	1	0	0.000000	correct rejection
168.0071	0.8003	84.003525	115	168.007051	168.807372	Scrambled	scambled_sun_aczmgnjjiykpqyts.jpg	1	0	0.000000	correct rejection
169.0079	0.8003	84.503935	116	169.007870	169.808214	Scrambled	scambled_cafe.jpg	1	0	0.000000	correct rejection
170.0087	0.8004	85.004352	117	170.008704	170.809060	Scrambled	scambled_Kitchen NW.JPG	1	0	0.000000	correct rejection
171.0095	0.7837	85.504770	118	171.009540	171.793220	Scrambled	scambled_sun_aghsutguqpsbxebgrot.jpg	1	0	0.000000	correct rejection
172.0104	0.7837	86.005189	119	172.010378	172.794056	Scrambled	scambled_sun_aghsutguqpsbxebgrot.jpg	2	1	450.791836	hit              
173.0112	0.7837	86.505621	120	173.011242	173.794894	Scrambled	scambled_livingRoomrot.jpg	1	0	0.000000	correct rejection
174.0121	0.7837	87.006031	121	174.012061	174.795739	Scrambled	scambled_house (16).jpg	1	0	0.000000	correct rejection
175.0129	0.7837	87.506450	122	175.012900	175.796570	Scrambled	scambled_gazebo.jpg	1	0	0.000000	correct rejection
175.9976	0.7998	87.998784	123	175.997568	176.797414	Scrambled	scambled_sun_aicccdealzkfllqt.jpg	1	0	0.000000	correct rejection
176.9980	0.8003	88.498978	124	176.997955	177.798253	Scrambled	scambled_sun_abfnxcxrrkcbdheo.jpg	1	0	0.000000	correct rejection
177.9990	0.8001	88.999516	125	177.999031	178.799093	Scrambled	scambled_sun_abfnxcxrrkcbdheo.jpg	2	1	510.066986	hit              
178.9996	0.8003	89.499794	126	178.999589	179.799931	Scrambled	scambled_sun_abfnxcxrrkcbdheorot.jpg	1	0	0.000000	correct rejection
180.0004	0.8004	90.000196	127	180.000391	180.800778	Scrambled	scambled_sun_acfzwujvudexaklvrot.jpg	1	0	0.000000	correct rejection
181.0012	0.8004	90.500612	128	181.001225	181.801666	Scrambled	scambled_tennisCourt.jpg	1	0	0.000000	correct rejection
182.0021	6.0000	91.001047	fix	182.002095	0.000000	fix	fix	fix	fix	fix	n/a
188.0071	0.8004	94.003549	129	188.007098	188.807538	Scene	074.jpg	1	0	0.000000	correct rejection
189.0080	0.8003	94.503990	130	189.007980	189.808323	Scene	114.jpg	1	0	0.000000	correct rejection
190.0089	0.8003	95.004441	131	190.008882	190.809169	Scene	114.jpg	2	1	492.054939	hit              
191.0097	0.7836	95.504864	132	191.009729	191.793334	Scene	038.jpg	1	0	0.000000	correct rejection
192.0105	0.7837	96.005258	133	192.010516	192.794169	Scene	107.jpg	1	0	0.000000	correct rejection
193.0113	0.7837	96.505674	134	193.011349	193.795012	Scene	025.jpg	1	0	0.000000	correct rejection
194.0123	0.7836	97.006135	135	194.012269	194.795855	Scene	002.jpg	1	0	0.000000	correct rejection
195.0131	0.7836	97.506544	136	195.013089	195.796695	Scene	094.jpg	1	0	0.000000	correct rejection
195.9972	0.8004	97.998588	137	195.997176	196.797534	Scene	133.jpg	1	0	0.000000	correct rejection
196.9980	0.8004	98.499005	138	196.998010	197.798376	Scene	015.jpg	1	0	0.000000	correct rejection
197.9989	0.8003	98.999443	139	197.998886	198.799213	Scene	069.jpg	1	0	0.000000	correct rejection
198.9997	0.8004	99.499848	140	198.999697	199.800058	Scene	017.jpg	1	0	0.000000	correct rejection
200.0005	0.8004	100.000265	141	200.000529	200.800886	Scene	006.jpg	1	0	0.000000	correct rejection
201.0014	0.8003	100.500704	142	201.001407	201.801724	Scene	046.jpg	1	0	0.000000	correct rejection
202.0022	0.8004	101.001114	143	202.002229	202.802610	Scene	046.jpg	2	1	370.617151	hit              
203.0031	0.8003	101.501528	144	203.003056	203.803405	Scene	070.jpg	1	0	0.000000	correct rejection
204.0039	6.0000	102.001962	fix	204.003924	0.000000	fix	fix	fix	fix	fix	n/a
210.0253	0.7840	105.012661	145	210.025323	210.809353	WkObject	ac.jpg	1	0	0.000000	correct rejection
211.0098	0.7837	105.504884	146	211.009767	211.793444	WkObject	Newspaper.jpg	1	0	0.000000	correct rejection
212.0106	0.7837	106.005319	147	212.010638	212.794289	WkObject	camera.jpg	1	0	0.000000	correct rejection
213.0115	0.7836	106.505735	148	213.011470	213.795119	WkObject	radiator.jpg	1	0	0.000000	correct rejection
214.0123	0.7837	107.006145	149	214.012289	214.795962	WkObject	radiator.jpg	2	1	368.510008	hit              
214.9967	0.8001	107.498368	150	214.996735	215.796810	WkObject	laptop.jpg	1	0	0.000000	correct rejection
215.9973	0.8003	107.998674	151	215.997347	216.797649	WkObject	backpack.jpg	1	0	0.000000	correct rejection
216.9982	0.8003	108.499078	152	216.998155	217.798487	WkObject	pen.jpg	1	0	0.000000	correct rejection
217.9989	0.8004	108.999473	153	217.998946	218.799314	WkObject	coffee.jpg	1	0	0.000000	correct rejection
218.9998	0.8003	109.499923	154	218.999846	219.800171	WkObject	wax_candle.jpg	1	0	0.000000	correct rejection
220.0006	0.8004	110.000324	155	220.000647	220.800998	WkObject	pizza_box.jpg	1	0	0.000000	correct rejection
221.0015	0.8004	110.500731	156	221.001463	221.801848	WkObject	cart.jpg	1	0	0.000000	correct rejection
222.0023	0.8004	111.001157	157	222.002313	222.802686	WkObject	armyknife.jpg	1	0	0.000000	correct rejection
223.0032	0.8003	111.501605	158	223.003209	223.803532	WkObject	humidifier.jpg	1	0	0.000000	correct rejection
224.0040	0.8004	112.002006	159	224.004012	224.804371	WkObject	humidifier.jpg	2	1	368.554831	hit              
225.0048	0.8004	112.502421	160	225.004841	225.805209	WkObject	bottle.jpg	1	0	0.000000	correct rejection
226.0058	6.0000	113.002881	fix	226.005761	0.000000	fix	fix	fix	fix	fix	n/a
232.0271	0.7673	116.013566	161	232.027133	232.794397	Scene	010.jpg	1	0	0.000000	correct rejection
233.0116	0.7836	116.505805	162	233.011611	233.795244	Scene	011.jpg	1	0	0.000000	correct rejection
234.0124	0.7837	117.006210	163	234.012420	234.796077	Scene	116.jpg	1	0	0.000000	correct rejection
234.9965	0.8004	117.498264	164	234.996528	235.796924	Scene	077.jpg	1	0	0.000000	correct rejection
235.9974	0.8004	117.998709	165	235.997418	236.797768	Scene	012.jpg	1	0	0.000000	correct rejection
236.9983	0.8003	118.499130	166	236.998259	237.798593	Scene	012.jpg	2	1	486.145973	hit              
237.9991	0.8004	118.999545	167	237.999090	238.799486	Scene	079.jpg	1	0	0.000000	correct rejection
238.9999	0.8004	119.499962	168	238.999924	239.800278	Scene	075.jpg	1	0	0.000000	correct rejection
240.0008	0.8004	120.000377	169	240.000754	240.801116	Scene	106.jpg	1	0	0.000000	correct rejection
241.0016	0.8004	120.500798	170	241.001597	241.801963	Scene	040.jpg	1	0	0.000000	correct rejection
242.0025	0.8003	121.001230	171	242.002460	242.802798	Scene	082.jpg	1	0	0.000000	correct rejection
243.0033	0.8003	121.501649	172	243.003298	243.803639	Scene	082.jpg	2	1	401.110888	hit              
244.0041	0.8004	122.002057	173	244.004114	244.804528	Scene	072.jpg	1	0	0.000000	correct rejection
245.0055	0.7998	122.502753	174	245.005505	245.805322	Scene	009.jpg	1	0	0.000000	correct rejection
246.0064	0.7997	123.003217	175	246.006435	246.806164	Scene	134.jpg	1	0	0.000000	correct rejection
247.0067	0.8003	123.503329	176	247.006658	247.807007	Scene	045.jpg	1	0	0.000000	correct rejection
248.0075	6.0000	124.003747	fix	248.007495	0.000000	fix	fix	fix	fix	fix	n/a
254.0125	0.7837	127.006251	177	254.012501	254.796190	Scrambled	scambled_Furnished-Office.jpg	1	0	0.000000	correct rejection
254.9978	0.7992	127.498897	178	254.997794	255.797031	Scrambled	scambled_kitchen002.jpg	1	0	0.000000	correct rejection
255.9975	0.8004	127.998737	179	255.997474	256.797880	Scrambled	scambled_sun_bgmylyaviikfuowd.jpg	1	0	0.000000	correct rejection
256.9984	0.8003	128.499181	180	256.998362	257.798710	Scrambled	scambled_varadero-beach-13915-2560x1600.jpg	1	0	0.000000	correct rejection
257.9992	0.8004	128.999594	181	257.999188	258.799587	Scrambled	scambled_house (33).jpg	1	0	0.000000	correct rejection
259.0000	0.8004	129.500015	182	259.000029	259.800391	Scrambled	scambled_sun_bbwlgfnxaocrxula.jpg	1	0	0.000000	correct rejection
260.0009	0.8004	130.000435	183	260.000871	260.801237	Scrambled	scambled_livingRoom.jpg	1	0	0.000000	correct rejection
261.0017	0.8003	130.500872	184	261.001745	261.802078	Scrambled	scambled_sun_ahiphsekjihkafsl.jpg	1	0	0.000000	correct rejection
262.0026	0.8003	131.001283	185	262.002566	262.802904	Scrambled	scambled_sun_abkmizyubcfcudbrrot.jpg	1	0	0.000000	correct rejection
263.0034	0.8004	131.501699	186	263.003398	263.803755	Scrambled	scambled_contemporary-home-offices.jpg	1	0	0.000000	correct rejection
264.0043	0.8003	132.002133	187	264.004265	264.804592	Scrambled	scambled_697_1343838978.JPG	1	0	0.000000	correct rejection
265.0051	0.8004	132.502532	188	265.005063	265.805429	Scrambled	scambled_697_1343838978.JPG	2	1	430.983067	hit              
266.0059	0.8003	133.002972	189	266.005945	266.806295	Scrambled	scambled_theater.jpg	1	0	0.000000	correct rejection
267.0068	0.8003	133.503391	190	267.006782	267.807112	Scrambled	scambled_sun_acggnoeidnfjlcisrot.jpg	1	0	0.000000	correct rejection
268.0076	0.8003	134.003819	191	268.007637	268.807947	Scrambled	scambled_bluff-house-living-room.jpg	1	0	0.000000	correct rejection
269.0084	0.8004	134.504215	192	269.008430	269.808787	Scrambled	scambled_bluff-house-living-room.jpg	2	1	371.562004	hit              
270.0093	6.0000	135.004658	fix	270.009316	0.000000	fix	fix	fix	fix	fix	n/a
