onset	duration	TR	Trial	StimOn	StimOff	cond	image	1back	Response	RT	Accuracy
12.0287	0.7670	6.014330	1	12.028660	12.795654	Scene	114.jpg	1	0	0.000000	correct rejection
13.0128	0.7837	6.506414	2	13.012828	13.796515	Scene	116.jpg	1	0	0.000000	correct rejection
14.0136	0.7837	7.006801	3	14.013602	14.797269	Scene	040.jpg	1	0	0.000000	correct rejection
14.9977	0.8004	7.498847	4	14.997693	15.798102	Scene	085.jpg	1	0	0.000000	correct rejection
15.9986	0.8003	7.999293	5	15.998586	16.798928	Scene	073.jpg	1	0	0.000000	correct rejection
16.9997	0.8001	8.499859	6	16.999718	17.799771	Scene	025.jpg	1	0	0.000000	correct rejection
18.0002	0.8004	9.000104	7	18.000208	18.800615	Scene	102.jpg	1	0	0.000000	correct rejection
19.0011	0.8004	9.500537	8	19.001074	19.801447	Scene	102.jpg	2	1	750.001907	hit              
20.0019	0.8004	10.000949	9	20.001897	20.802315	Scene	090.JPG	1	1	3.513098	false alarm      
21.0028	0.8004	10.501376	10	21.002752	21.803132	Scene	032.jpg	1	0	0.000000	correct rejection
22.0036	0.8004	11.001814	11	22.003628	22.803982	Scene	032.jpg	2	1	715.366125	hit              
23.0044	0.8004	11.502214	12	23.004428	23.804857	Scene	018.jpg	1	1	1.214981	false alarm      
24.0053	0.8004	12.002653	13	24.005305	24.805666	Scene	132.jpg	1	0	0.000000	correct rejection
25.0062	0.8003	12.503091	14	25.006181	25.806495	Scene	086.JPG	1	0	0.000000	correct rejection
26.0070	0.8003	13.003498	15	26.006996	26.807333	Scene	135.jpg	1	0	0.000000	correct rejection
27.0078	0.8004	13.503913	16	27.007825	27.808182	Scene	133.jpg	1	0	0.000000	correct rejection
28.0088	6.0000	14.004423	fix	28.008846	0.000000	fix	fix	fix	fix	fix	n/a
34.0301	0.7673	17.015029	17	34.030058	34.797401	Scrambled	scambled_house (32).jpg	1	0	0.000000	correct rejection
34.9978	0.8004	17.498903	18	34.997805	35.798216	Scrambled	scambled_house (32).jpg	2	1	665.220976	hit              
35.9987	0.8004	17.999341	19	35.998681	36.799061	Scrambled	scambled_sun_djdeitrckcbvpdam.jpg	1	1	6.120920	false alarm      
36.9995	0.8003	18.499771	20	36.999541	37.799882	Scrambled	scambled_sun_djdeitrckcbvpdam.jpg	2	1	735.255957	hit              
38.0003	0.8004	19.000167	21	38.000333	38.800729	Scrambled	scambled_697_1343838978.JPG	1	1	4.247904	false alarm      
39.0012	0.8004	19.500606	22	39.001212	39.801582	Scrambled	scambled_sun_bbwlgfnxaocrxula.jpg	1	0	0.000000	correct rejection
40.0020	0.8004	20.001011	23	40.002021	40.802419	Scrambled	scambled_Furnished-Office.jpg	1	0	0.000000	correct rejection
41.0029	0.8003	20.501448	24	41.002895	41.803241	Scrambled	scambled_bluff-house-living-room.jpg	1	0	0.000000	correct rejection
42.0038	0.8003	21.001878	25	42.003756	42.804091	Scrambled	scambled_sun_ajofholrxfzifcca.jpg	1	0	0.000000	correct rejection
43.0046	0.8004	21.502282	26	43.004564	43.804939	Scrambled	scambled_sun_aghsutguqpsbxebg.jpg	1	0	0.000000	correct rejection
44.0054	0.8004	22.002703	27	44.005405	44.805763	Scrambled	scambled_tennisCourt.jpg	1	0	0.000000	correct rejection
45.0063	0.8004	22.503143	28	45.006285	45.806636	Scrambled	scambled_Model_bedroom1rot.jpg	1	0	0.000000	correct rejection
46.0072	0.8003	23.003585	29	46.007170	46.807465	Scrambled	scambled_clothingStore.jpg	1	0	0.000000	correct rejection
47.0079	0.8004	23.503970	30	47.007940	47.808304	Scrambled	scambled_country-house-bedroom-design-ideas-585x587.jpg	1	0	0.000000	correct rejection
48.0088	0.8003	24.004421	31	48.008842	48.809128	Scrambled	scambled_sun_abkmizyubcfcudbr.jpg	1	0	0.000000	correct rejection
49.0096	0.7837	24.504809	32	49.009617	49.793270	Scrambled	scambled_elevator.jpg	1	0	0.000000	correct rejection
49.9941	6.0000	24.997069	fix	49.994138	0.000000	fix	fix	fix	fix	fix	n/a
56.0155	0.7837	28.007741	33	56.015482	56.799169	WkObject	Newspaper.jpg	1	0	0.000000	correct rejection
56.9996	0.8004	28.499804	34	56.999609	57.799996	WkObject	Newspaper.jpg	2	1	622.977018	hit              
58.0004	0.8004	29.000214	35	58.000427	58.800829	WkObject	pen.jpg	1	1	5.146980	false alarm      
59.0013	0.8004	29.500633	36	59.001266	59.801688	WkObject	good-duffel.jpg	1	0	0.000000	correct rejection
60.0021	0.8004	30.001070	37	60.002139	60.802526	WkObject	sattelitedish.jpg	1	0	0.000000	correct rejection
61.0030	0.8004	30.501486	38	61.002972	61.803357	WkObject	bench.jpg	1	0	0.000000	correct rejection
62.0038	0.8003	31.001923	39	62.003846	62.804195	WkObject	calculator01.jpg	1	0	0.000000	correct rejection
63.0049	0.8002	31.502450	40	63.004900	63.805052	WkObject	chess.JPG	1	0	0.000000	correct rejection
64.0055	0.8004	32.002768	41	64.005535	64.805893	WkObject	chess.JPG	2	1	560.977936	hit              
65.0064	0.8003	32.503211	42	65.006422	65.806752	WkObject	wax_candle.jpg	1	0	0.000000	correct rejection
66.0072	0.8004	33.003602	43	66.007203	66.807568	WkObject	fireExt.jpg	1	0	0.000000	correct rejection
67.0081	0.8003	33.504037	44	67.008073	67.808384	WkObject	humidifier.jpg	1	0	0.000000	correct rejection
68.0089	0.8003	34.004449	45	68.008899	68.809219	WkObject	lamp.jpg	1	0	0.000000	correct rejection
69.0098	0.7837	34.504888	46	69.009776	69.793431	WkObject	lock.jpg	1	0	0.000000	correct rejection
70.0106	0.7837	35.005284	47	70.010567	70.794278	WkObject	jar.jpg	1	0	0.000000	correct rejection
71.0114	0.7837	35.505708	48	71.011416	71.795074	WkObject	step_stool.jpg	1	0	0.000000	correct rejection
71.9956	6.0000	35.997779	fix	71.995558	0.000000	fix	fix	fix	fix	fix	n/a
78.0170	0.7839	39.008494	49	78.016989	78.800931	Scene	045.jpg	1	0	0.000000	correct rejection
79.0014	0.8004	39.500713	50	79.001426	79.801781	Scene	070.jpg	1	0	0.000000	correct rejection
80.0022	0.8004	40.001119	51	80.002238	80.802614	Scene	108.jpg	1	0	0.000000	correct rejection
81.0031	0.8003	40.501572	52	81.003144	81.803459	Scene	108.jpg	2	1	595.147133	hit              
82.0040	0.8003	41.001996	53	82.003992	82.804336	Scene	072.jpg	1	1	0.603914	false alarm      
83.0053	0.7998	41.502656	54	83.005311	83.805153	Scene	072.jpg	2	1	632.946014	hit              
84.0056	0.8004	42.002820	55	84.005639	84.806016	Scene	082.jpg	1	0	0.000000	correct rejection
85.0066	0.8002	42.503303	56	85.006605	85.806835	Scene	065.jpg	1	0	0.000000	correct rejection
86.0074	0.8003	43.003684	57	86.007368	86.807664	Scene	020.jpg	1	0	0.000000	correct rejection
87.0081	0.8004	43.504072	58	87.008143	87.808511	Scene	066.jpg	1	0	0.000000	correct rejection
88.0090	0.8004	44.004485	59	88.008969	88.809340	Scene	013.jpg	1	0	0.000000	correct rejection
89.0099	0.7836	44.504937	60	89.009874	89.793521	Scene	007.jpg	1	0	0.000000	correct rejection
90.0107	0.7836	45.005345	61	90.010689	90.794334	Scene	033.jpg	1	0	0.000000	correct rejection
91.0115	0.7837	45.505753	62	91.011505	91.795177	Scene	011.jpg	1	0	0.000000	correct rejection
92.0124	0.7836	46.006195	63	92.012390	92.796030	Scene	046.jpg	1	0	0.000000	correct rejection
92.9965	0.8003	46.498267	64	92.996533	93.796859	Scene	069.jpg	1	0	0.000000	correct rejection
93.9974	6.0000	46.998694	fix	93.997388	0.000000	fix	fix	fix	fix	fix	n/a
100.0024	0.8004	50.001182	65	100.002363	100.802740	WkObject	clock.jpg	1	0	0.000000	correct rejection
101.0032	0.8004	50.501597	66	101.003194	101.803577	WkObject	clock.jpg	2	1	458.811998	hit              
102.0041	0.8004	51.002044	67	102.004088	102.804471	WkObject	hotairballoon.jpg	1	0	0.000000	correct rejection
103.0049	0.8004	51.502444	68	103.004888	103.805252	WkObject	scissors.jpg	1	0	0.000000	correct rejection
104.0057	0.8006	52.002859	69	104.005718	104.806336	WkObject	bottle.jpg	1	0	0.000000	correct rejection
105.0066	0.8003	52.503314	70	105.006628	105.806935	WkObject	armyknife.jpg	1	0	0.000000	correct rejection
106.0074	0.8003	53.003716	71	106.007432	106.807766	WkObject	coffee.jpg	1	0	0.000000	correct rejection
107.0083	0.8004	53.504129	72	107.008257	107.808611	WkObject	tree.jpg	1	0	0.000000	correct rejection
108.0091	0.8003	54.004572	73	108.009143	108.809455	WkObject	bike.jpg	1	0	0.000000	correct rejection
109.0100	0.7837	54.504978	74	109.009955	109.793607	WkObject	spraybottle01.jpg	1	0	0.000000	correct rejection
110.0108	0.7836	55.005413	75	110.010825	110.794460	WkObject	surge.jpg	1	0	0.000000	correct rejection
111.0117	0.7836	55.505832	76	111.011663	111.795294	WkObject	surge.jpg	2	1	722.221851	hit              
112.0125	0.7837	56.006253	77	112.012506	112.796193	WkObject	radiator.jpg	1	1	3.401995	false alarm      
112.9975	0.7995	56.498752	78	112.997503	113.796983	WkObject	umbrella2.jpg	1	0	0.000000	correct rejection
113.9974	0.8004	56.998707	79	113.997414	114.797805	WkObject	box.jpg	1	0	0.000000	correct rejection
114.9983	0.8004	57.499139	80	114.998278	115.798651	WkObject	cooler.jpg	1	0	0.000000	correct rejection
115.9992	6.0000	57.999594	fix	115.999188	0.000000	fix	fix	fix	fix	fix	n/a
122.0205	0.7840	61.010269	81	122.020537	122.804537	Scrambled	scambled_sun_aghsutguqpsbxebgrot.jpg	1	0	0.000000	correct rejection
123.0051	0.8003	61.502551	82	123.005102	123.805360	Scrambled	scambled_sun_aghsutguqpsbxebgrot.jpg	2	1	544.627905	hit              
124.0059	0.8004	62.002925	83	124.005850	124.806202	Scrambled	scambled_gazebo.jpg	1	0	0.000000	correct rejection
125.0067	0.8003	62.503357	84	125.006714	125.807039	Scrambled	scambled_house (33).jpg	1	0	0.000000	correct rejection
126.0076	0.8003	63.003778	85	126.007556	126.807883	Scrambled	scambled_sun_afjnbldlkryenvxnrot.jpg	1	0	0.000000	correct rejection
127.0084	0.8003	63.504186	86	127.008371	127.808719	Scrambled	scambled_fountain.jpg	1	0	0.000000	correct rejection
128.0092	0.8004	64.004607	87	128.009213	128.809574	Scrambled	scambled_sun_ahiphsekjihkafsl.jpg	1	0	0.000000	correct rejection
129.0101	0.7837	64.505025	88	129.010050	129.793719	Scrambled	scambled_contemporary-home-offices.jpg	1	0	0.000000	correct rejection
130.0109	0.7836	65.005467	89	130.010933	130.794564	Scrambled	scambled_sun_aczmgnjjiykpqyts.jpg	1	0	0.000000	correct rejection
131.0117	0.7837	65.505857	90	131.011713	131.795419	Scrambled	scambled_sun_aicccdealzkfllqt.jpg	1	0	0.000000	correct rejection
132.0126	0.7837	66.006280	91	132.012559	132.796236	Scrambled	scambled_may 20th 2011 002.JPG	1	0	0.000000	correct rejection
132.9967	0.8004	66.498348	92	132.996696	133.797081	Scrambled	scambled_sun_aowymmyymtohyobt.jpg	1	0	0.000000	correct rejection
133.9975	0.8004	66.998773	93	133.997546	134.797929	Scrambled	scambled_sun_aowymmyymtohyobt.jpg	2	1	704.082966	hit              
134.9985	0.8003	67.499253	94	134.998505	135.798764	Scrambled	scambled_varadero-beach-13897-2560x1600.jpg	1	1	7.122040	false alarm      
135.9993	0.8004	67.999627	95	135.999253	136.799608	Scrambled	scambled_sun_aiyqlrbcjqqjumtf.jpg	1	0	0.000000	correct rejection
137.0001	0.8004	68.500030	96	137.000060	137.800442	Scrambled	scambled_sun_acggnoeidnfjlcis.jpg	1	0	0.000000	correct rejection
138.0010	6.0000	69.000489	fix	138.000978	0.000000	fix	fix	fix	fix	fix	n/a
144.0059	0.8004	72.002975	97	144.005950	144.806310	Scene	094.jpg	1	0	0.000000	correct rejection
145.0068	0.8003	72.503411	98	145.006822	145.807163	Scene	075.jpg	1	0	0.000000	correct rejection
146.0077	0.8003	73.003841	99	146.007681	146.807999	Scene	079.jpg	1	0	0.000000	correct rejection
147.0085	0.8003	73.504261	100	147.008521	147.808835	Scene	098.jpg	1	0	0.000000	correct rejection
148.0093	0.8004	74.004664	101	148.009328	148.809685	Scene	134.jpg	1	0	0.000000	correct rejection
149.0102	0.7837	74.505087	102	149.010174	149.793840	Scene	134.jpg	2	1	587.257147	hit              
150.0110	0.7836	75.005522	103	150.011043	150.794676	Scene	017.jpg	1	0	0.000000	correct rejection
151.0118	0.7837	75.505924	104	151.011847	151.795535	Scene	017.jpg	2	1	633.610964	hit              
152.0127	0.7836	76.006363	105	152.012726	152.796355	Scene	131.jpg	1	1	2.768993	false alarm      
152.9968	0.8004	76.498395	106	152.996790	153.797194	Scene	089.jpg	1	0	0.000000	correct rejection
153.9976	0.8004	76.998815	107	153.997630	154.798042	Scene	106.jpg	1	0	0.000000	correct rejection
154.9986	0.8003	77.499276	108	154.998552	155.798873	Scene	038.jpg	1	0	0.000000	correct rejection
155.9993	0.8004	77.999664	109	155.999327	156.799718	Scene	077.jpg	1	0	0.000000	correct rejection
157.0002	0.8003	78.500103	110	157.000206	157.800551	Scene	076.jpg	1	0	0.000000	correct rejection
158.0010	0.8004	79.000517	111	158.001035	158.801391	Scene	010.jpg	1	0	0.000000	correct rejection
159.0018	0.8004	79.500919	112	159.001837	159.802237	Scene	030.jpg	1	0	0.000000	correct rejection
160.0028	6.0000	80.001378	fix	160.002756	0.000000	fix	fix	fix	fix	fix	n/a
166.0077	0.8004	83.003873	113	166.007745	166.808165	Scrambled	scambled_livingRoomrot.jpg	1	0	0.000000	correct rejection
167.0086	0.8004	83.504299	114	167.008598	167.809012	Scrambled	scambled_sun_afjnbldlkryenvxn.jpg	1	0	0.000000	correct rejection
168.0094	0.8004	84.004712	115	168.009423	168.809787	Scrambled	scambled_sun_bhacgmcdgrgtyplg.jpg	1	0	0.000000	correct rejection
169.0103	0.7837	84.505134	116	169.010267	169.793948	Scrambled	scambled_house (16).jpg	1	0	0.000000	correct rejection
170.0111	0.7836	85.005573	117	170.011145	170.794785	Scrambled	scambled_may 20th 2011rot.jpg	1	0	0.000000	correct rejection
171.0119	0.7837	85.505973	118	171.011945	171.795625	Scrambled	scambled_cafe.jpg	1	0	0.000000	correct rejection
171.9965	0.8000	85.998256	119	171.996512	172.796478	Scrambled	scambled_gym.jpg	1	0	0.000000	correct rejection
172.9970	0.8003	86.498494	120	172.996988	173.797313	Scrambled	scambled_gym.jpg	2	1	560.205936	hit              
173.9978	0.8003	86.998907	121	173.997814	174.798150	Scrambled	scambled_livingRoom.jpg	1	0	0.000000	correct rejection
174.9986	0.8003	87.499322	122	174.998643	175.798985	Scrambled	scambled_sun_agpxkgsdlobslcpl.jpg	1	0	0.000000	correct rejection
175.9995	0.8004	87.999732	123	175.999464	176.799827	Scrambled	scambled_Kitchen NW.JPG	1	0	0.000000	correct rejection
177.0003	0.8004	88.500160	124	177.000319	177.800672	Scrambled	scambled_sun_acfzwujvudexaklvrot.jpg	1	0	0.000000	correct rejection
178.0012	0.8004	89.000576	125	178.001153	178.801505	Scrambled	scambled_hairSalon.jpg	1	0	0.000000	correct rejection
179.0020	0.8004	89.500988	126	179.001976	179.802345	Scrambled	scambled_hairSalon.jpg	2	1	667.145014	hit              
180.0028	0.8004	90.001402	127	180.002804	180.803181	Scrambled	scambled_baseballField.jpg	1	1	1.765013	false alarm      
181.0036	0.8004	90.501822	128	181.003643	181.804029	Scrambled	scambled_kitchen3.jpg	1	0	0.000000	correct rejection
182.0046	6.0000	91.002285	fix	182.004570	0.000000	fix	fix	fix	fix	fix	n/a
188.0095	0.7837	94.004765	129	188.009529	188.793233	WkObject	robot.jpg	1	0	0.000000	correct rejection
189.0104	0.7836	94.505206	130	189.010412	189.794059	WkObject	pizza_box.jpg	1	0	0.000000	correct rejection
190.0112	0.7837	95.005625	131	190.011249	190.794914	WkObject	Baseball_cap.jpg	1	0	0.000000	correct rejection
191.0121	0.7836	95.506051	132	191.012101	191.795738	WkObject	laptop.jpg	1	0	0.000000	correct rejection
191.9964	0.8002	95.998213	133	191.996426	192.796581	WkObject	atm.jpg	1	0	0.000000	correct rejection
192.9970	0.8004	96.498521	134	192.997042	193.797413	WkObject	razor.jpg	1	0	0.000000	correct rejection
193.9979	0.8003	96.998958	135	193.997915	194.798260	WkObject	trunk.jpg	1	0	0.000000	correct rejection
194.9988	0.8003	97.499381	136	194.998761	195.799100	WkObject	plant01.jpg	1	0	0.000000	correct rejection
195.9996	0.8004	97.999790	137	195.999580	196.799932	WkObject	plant01.jpg	2	1	709.303856	hit              
197.0004	0.8003	98.500221	138	197.000443	197.800785	WkObject	vase.jpg	1	1	4.354000	false alarm      
198.0013	0.8003	99.000637	139	198.001273	198.801618	WkObject	Helicopter.jpg	1	0	0.000000	correct rejection
199.0021	0.8004	99.501047	140	199.002095	199.802454	WkObject	cart.jpg	1	0	0.000000	correct rejection
200.0029	0.8004	100.001453	141	200.002905	200.803293	WkObject	camera.jpg	1	0	0.000000	correct rejection
201.0046	0.7995	100.502303	142	201.004605	201.804132	WkObject	fan.jpg	1	0	0.000000	correct rejection
202.0046	0.8003	101.002323	143	202.004646	202.804977	WkObject	backpack.jpg	1	0	0.000000	correct rejection
203.0055	0.8003	101.502774	144	203.005548	203.805814	WkObject	backpack.jpg	2	1	607.237101	hit              
204.0063	6.0000	102.003166	fix	204.006331	0.000000	fix	fix	fix	fix	fix	n/a
210.0114	0.7836	105.005723	145	210.011446	210.795009	Scene	068.jpg	1	0	0.000000	correct rejection
211.0122	0.7837	105.506109	146	211.012218	211.795906	Scene	006.jpg	1	0	0.000000	correct rejection
211.9965	0.8002	105.998265	147	211.996530	212.796730	Scene	012.jpg	1	0	0.000000	correct rejection
212.9972	0.8003	106.498591	148	212.997181	213.797527	Scene	130.jpg	1	0	0.000000	correct rejection
213.9980	0.8004	106.999002	149	213.998004	214.798373	Scene	078.jpg	1	0	0.000000	correct rejection
214.9988	0.8004	107.499412	150	214.998824	215.799222	Scene	009.jpg	1	0	0.000000	correct rejection
215.9997	0.8004	107.999839	151	215.999678	216.800049	Scene	009.jpg	2	1	860.938072	hit              
217.0005	0.8005	108.500241	152	217.000482	217.800932	Scene	003.jpg	1	1	3.331900	false alarm      
218.0014	0.8004	109.000692	153	218.001385	218.801797	Scene	021.jpg	1	0	0.000000	correct rejection
219.0023	0.8003	109.501139	154	219.002278	219.802579	Scene	014.jpg	1	0	0.000000	correct rejection
220.0031	0.8003	110.001558	155	220.003115	220.803409	Scene	107.jpg	1	0	0.000000	correct rejection
221.0039	0.8003	110.501952	156	221.003903	221.804253	Scene	074.jpg	1	0	0.000000	correct rejection
222.0049	0.8002	111.002427	157	222.004853	222.805087	Scene	074.jpg	2	1	735.682011	hit              
223.0056	0.8003	111.502807	158	223.005615	223.805935	Scene	015.jpg	1	1	1.049042	false alarm      
224.0064	0.8004	112.003187	159	224.006374	224.806807	Scene	083.jpg	1	0	0.000000	correct rejection
225.0072	0.8004	112.503618	160	225.007235	225.807608	Scene	080.jpg	1	0	0.000000	correct rejection
226.0081	6.0000	113.004061	fix	226.008121	0.000000	fix	fix	fix	fix	fix	n/a
232.0131	0.7837	116.006556	161	232.013111	232.796804	WkObject	Water-Cooler.jpg	1	0	0.000000	correct rejection
232.9973	0.8004	116.498630	162	232.997260	233.797646	WkObject	branch02.jpg	1	0	0.000000	correct rejection
233.9981	0.8003	116.999072	163	233.998143	234.798480	WkObject	branch02.jpg	2	1	774.238825	hit              
234.9990	0.8004	117.499487	164	234.998973	235.799372	WkObject	rubik-original.jpg	1	1	5.001068	false alarm      
235.9998	0.8004	117.999897	165	235.999794	236.800165	WkObject	rubik-original.jpg	2	1	484.621048	hit              
237.0007	0.8003	118.500334	166	237.000667	237.801006	WkObject	basket.jpg	1	0	0.000000	correct rejection
238.0015	0.8004	119.000746	167	238.001491	238.801843	WkObject	ac.jpg	1	0	0.000000	correct rejection
239.0023	0.8004	119.501155	168	239.002309	239.802684	WkObject	usbkey.jpg	1	0	0.000000	correct rejection
240.0032	0.8004	120.001583	169	240.003165	240.803520	WkObject	safe.jpg	1	0	0.000000	correct rejection
241.0045	0.7998	120.502266	170	241.004531	241.804358	WkObject	brass_bell.jpg	1	0	0.000000	correct rejection
242.0049	0.8003	121.002433	171	242.004866	242.805203	WkObject	9volt.jpg	1	0	0.000000	correct rejection
243.0057	0.8004	121.502845	172	243.005690	243.806049	WkObject	table.jpg	1	0	0.000000	correct rejection
244.0065	0.8004	122.003260	173	244.006520	244.806883	WkObject	crate.jpg	1	0	0.000000	correct rejection
245.0074	0.8003	122.503704	174	245.007408	245.807735	WkObject	folding_chair.jpg	1	0	0.000000	correct rejection
246.0083	0.8003	123.004129	175	246.008258	246.808558	WkObject	garbage.jpg	1	0	0.000000	correct rejection
247.0090	0.8004	123.504512	176	247.009024	247.809403	WkObject	window.jpg	1	0	0.000000	correct rejection
248.0099	6.0000	124.004958	fix	248.009915	0.000000	fix	fix	fix	fix	fix	n/a
254.0149	0.7837	127.007452	177	254.014903	254.798618	Scrambled	scambled_sun_acfzwujvudexaklv.jpg	1	0	0.000000	correct rejection
254.9991	0.8003	127.499552	178	254.999104	255.799438	Scrambled	scambled_library.jpg	1	0	0.000000	correct rejection
255.9999	0.8004	127.999963	179	255.999925	256.800279	Scrambled	scambled_house (34).jpg	1	0	0.000000	correct rejection
257.0008	0.8003	128.500385	180	257.000770	257.801120	Scrambled	scambled_kitchen002.jpg	1	0	0.000000	correct rejection
258.0016	0.8004	129.000795	181	258.001590	258.801960	Scrambled	scambled_sun_agpxkgsdlobslcplrot.jpg	1	0	0.000000	correct rejection
259.0024	0.8004	129.501222	182	259.002445	259.802799	Scrambled	scambled_varadero-beach-13915-2560x1600.jpg	1	0	0.000000	correct rejection
260.0033	0.8004	130.001635	183	260.003270	260.803629	Scrambled	scambled_house (19).jpg	1	0	0.000000	correct rejection
261.0048	0.7997	130.502411	184	261.004822	261.804472	Scrambled	scambled_Echo_Bedroom.jpg	1	0	0.000000	correct rejection
262.0050	0.8003	131.002485	185	262.004969	262.805314	Scrambled	scambled_Echo_Bedroom.jpg	2	1	743.041992	hit              
263.0059	0.8002	131.502973	186	263.005946	263.806155	Scrambled	scambled_Model_bedroom1.jpg	1	1	8.112907	false alarm      
264.0068	0.8002	132.003419	187	264.006838	264.807000	Scrambled	scambled_theater.jpg	1	0	0.000000	correct rejection
265.0075	0.8003	132.503760	188	265.007519	265.807834	Scrambled	scambled_sun_acggnoeidnfjlcisrot.jpg	1	0	0.000000	correct rejection
266.0084	0.8003	133.004179	189	266.008358	266.808669	Scrambled	scambled_farm.jpg	1	0	0.000000	correct rejection
267.0092	0.8004	133.504578	190	267.009156	267.809532	Scrambled	scambled_farm.jpg	2	1	770.853996	hit              
268.0101	0.7836	134.005041	191	268.010081	268.793668	Scrambled	scambled_sun_abkmizyubcfcudbrrot.jpg	1	1	6.217957	false alarm      
269.0110	0.7836	134.505480	192	269.010959	269.794513	Scrambled	scambled_kitchen.jpg	1	0	0.000000	correct rejection
269.9950	6.0000	134.997505	fix	269.995010	0.000000	fix	fix	fix	fix	fix	n/a
